faceTesting,oldnew,race,isFamous,,faceAsking,options,correctOption,learningLoop.thisRepN,learningLoop.thisTrialN,learningLoop.thisN,learningLoop.thisIndex,testingLoop.thisRepN,testingLoop.thisTrialN,testingLoop.thisN,testingLoop.thisIndex,familiarnessLoop.thisRepN,familiarnessLoop.thisTrialN,familiarnessLoop.thisN,familiarnessLoop.thisIndex,thisRow.t,notes,haskama_2.started,haskama.started,key_resp.started,haskama_2.stopped,Blank500.started,image.started,image.stopped,Blank500.stopped,insLearning.started,insLearning_img.started,key_resp_2.started,insLearning.stopped,learningPic.started,facestudypic.started,learningPic.stopped,insTest.started,insTest_img.started,key_resp_4.started,insTest.stopped,testingPic.started,orientation,facetestpic.started,testkeys.started,testingPic.stopped,testkeys.keys,testkeys.rt,testkeys.duration,insFamiliarness.started,insFamiliarness_img.started,key_resp_5.started,insFamiliarness.stopped,familiarnessPic.started,familiarnessPic_img.started,familiarnessKeys.started,text.started,familiarnessPic.stopped,familiarnessKeys.keys,familiarnessKeys.rt,familiarnessKeys.duration,thankYou.started,text_2.started,text_2.stopped,thankYou.stopped,participant,session,age,"female=""1"""," male=""2""",date,expName,psychopyVersion,frameRate,expStart
,,,,,,,,,,,,,,,,,,,,,,0.003499,0.0297386,0.0297386,63.4427113,,,,,,,,,,,,,,,,,,,,,,,,,,,,,,,,,,,,,,,,811105,2,26,2,2025-06-15_14h25.01.036,מחקר פסיכולוגי,2024.1.4,None,2025-06-15 14h29.59.653811 +0300,
,,,,,,,,,,,,,,,,,,,,,,,,,,63.4427444,63.4547509,63.9590444,63.9393147,,,,,,,,,,,,,,,,,,,,,,,,,,,,,,,,,,,,811105,2,26,2,2025-06-15_14h25.01.036,מחקר פסיכולוגי,2024.1.4,None,2025-06-15 14h29.59.653811 +0300,
,,,,,,,,,,,,,,,,,,,,,,,,,,,,,,63.9393389,63.9590444,63.9590444,99.759539,,,,,,,,,,,,,,,,,,,,,,,,,,,,,,,,811105,2,26,2,2025-06-15_14h25.01.036,מחקר פסיכולוגי,2024.1.4,None,2025-06-15 14h29.59.653811 +0300,
,,,,,,,,,,,,,,,,,,,,177.306082,,,,,,179.2713399,179.2867157,,179.769993,,,,,177.2702238,177.306082,179.2713122,179.7701444,179.7944553,179.7944553,200.6909954,,,,,,,,,,,,,,,,,,,,,,,,,811105,2,26,2,2025-06-15_14h25.01.036,מחקר פסיכולוגי,2024.1.4,None,2025-06-15 14h29.59.653811 +0300,
,,,,,,,,,,,,,,,,,,,,,,,,,,200.6910225,200.7025057,201.2347345,201.1870679,,,,,,,,,,,,,,,,,,,,,,,,,,,,,,,,,,,,811105,2,26,2,2025-06-15_14h25.01.036,מחקר פסיכולוגי,2024.1.4,None,2025-06-15 14h29.59.653811 +0300,
images2/image61.png,old,caucasian,unknown,,,,,,,,,0,0,0,60,,,,,201.2347345,,,,,,203.490187,203.4938484,204.0291365,203.9866889,,,,,,,,,,,,201.2203619,normal,201.2347345,201.2347345,203.4717184,left,2.2259037,None,,,,,,,,,,,,,,,,,811105,2,26,2,2025-06-15_14h25.01.036,מחקר פסיכולוגי,2024.1.4,None,2025-06-15 14h29.59.653811 +0300,
images2/image22.png,new,afrikan,unknown,,,,,,,,,0,1,1,21,,,,,204.0291365,,,,,,205.5892188,205.6025445,206.1278682,206.0871138,,,,,,,,,,,,203.9871714,flipped,204.0291365,204.0291365,205.5889225,right,1.5487614,None,,,,,,,,,,,,,,,,,811105,2,26,2,2025-06-15_14h25.01.036,מחקר פסיכולוגי,2024.1.4,None,2025-06-15 14h29.59.653811 +0300,
images2/image21.png,new,afrikan,unknown,,,,,,,,,0,2,2,20,,,,,206.1278682,,,,,,207.7550001,207.7691716,208.2879434,208.2534605,,,,,,,,,,,,206.0875818,flipped,206.1278682,206.1278682,207.7547213,left,1.6207772,None,,,,,,,,,,,,,,,,,811105,2,26,2,2025-06-15_14h25.01.036,מחקר פסיכולוגי,2024.1.4,None,2025-06-15 14h29.59.653811 +0300,
images2/image11.png,new,caucasian,famous,,,,,,,,,0,3,3,10,,,,,208.2879434,,,,,,209.6400877,209.6527691,210.1798465,210.1363783,,,,,,,,,,,,208.2537491,normal,208.2879434,208.2879434,209.6396271,left,1.3393492,None,,,,,,,,,,,,,,,,,811105,2,26,2,2025-06-15_14h25.01.036,מחקר פסיכולוגי,2024.1.4,None,2025-06-15 14h29.59.653811 +0300,
images2/image18.png,new,afrikan,unknown,,,,,,,,,0,4,4,17,,,,,210.1798465,,,,,,211.3385738,211.3524279,211.8539279,211.8364995,,,,,,,,,,,,210.1366804,normal,210.1798465,210.1798465,211.338277,left,1.1439282,None,,,,,,,,,,,,,,,,,811105,2,26,2,2025-06-15_14h25.01.036,מחקר פסיכולוגי,2024.1.4,None,2025-06-15 14h29.59.653811 +0300,
images2/image39.png,old,afrikan,famous,,,,,,,,,0,5,5,38,,,,,211.8539279,,,,,,212.7888013,212.8023814,213.3239742,213.2864211,,,,,,,,,,,,211.8367677,normal,211.8539279,211.8539279,212.7885229,right,0.9316387,None,,,,,,,,,,,,,,,,,811105,2,26,2,2025-06-15_14h25.01.036,מחקר פסיכולוגי,2024.1.4,None,2025-06-15 14h29.59.653811 +0300,
images2/image32.png,new,caucasian,unknown,,,,,,,,,0,6,6,31,,,,,213.3239742,,,,,,214.2389259,214.2523377,214.7545407,214.7364647,,,,,,,,,,,,213.2867191,normal,213.3239742,213.3239742,214.2386358,left,0.9018796,None,,,,,,,,,,,,,,,,,811105,2,26,2,2025-06-15_14h25.01.036,מחקר פסיכולוגי,2024.1.4,None,2025-06-15 14h29.59.653811 +0300,
images2/image36.png,old,afrikan,famous,,,,,,,,,0,7,7,35,,,,,214.7545407,,,,,,215.7883691,215.8023505,216.3067579,216.286461,,,,,,,,,,,,214.7367893,flipped,214.7545407,214.7545407,215.788089,right,1.0297529,None,,,,,,,,,,,,,,,,,811105,2,26,2,2025-06-15_14h25.01.036,מחקר פסיכולוגי,2024.1.4,None,2025-06-15 14h29.59.653811 +0300,
images2/image60.png,old,caucasian,unknown,,,,,,,,,0,8,8,59,,,,,216.3067579,,,,,,217.4216869,217.4356099,217.9386437,217.9199025,,,,,,,,,,,,216.2868548,flipped,216.3067579,216.3067579,217.4214081,left,1.1102784,None,,,,,,,,,,,,,,,,,811105,2,26,2,2025-06-15_14h25.01.036,מחקר פסיכולוגי,2024.1.4,None,2025-06-15 14h29.59.653811 +0300,
images2/image51.png,old,afrikan,unknown,,,,,,,,,0,9,9,50,,,,,217.9386437,,,,,,219.3072084,219.3190624,219.8212332,219.8033318,,,,,,,,,,,,217.9202287,flipped,217.9386437,217.9386437,219.3067126,right,1.3570687,None,,,,,,,,,,,,,,,,,811105,2,26,2,2025-06-15_14h25.01.036,מחקר פסיכולוגי,2024.1.4,None,2025-06-15 14h29.59.653811 +0300,
images2/image41.png,old,caucasian,famous,,,,,,,,,0,10,10,40,,,,,219.8212332,,,,,,221.321932,221.3359063,221.8468114,221.8192757,,,,,,,,,,,,219.8038184,normal,219.8212332,219.8212332,221.3215915,right,1.498007,None,,,,,,,,,,,,,,,,,811105,2,26,2,2025-06-15_14h25.01.036,מחקר פסיכולוגי,2024.1.4,None,2025-06-15 14h29.59.653811 +0300,
images2/image53.png,old,afrikan,unknown,,,,,,,,,0,11,11,52,,,,,221.8468114,,,,,,222.7716093,222.7855899,223.3085129,223.2695188,,,,,,,,,,,,221.819546,normal,221.8468114,221.8468114,222.7713295,right,0.9217667,None,,,,,,,,,,,,,,,,,811105,2,26,2,2025-06-15_14h25.01.036,מחקר פסיכולוגי,2024.1.4,None,2025-06-15 14h29.59.653811 +0300,
images2/image8.png,new,afrikan,famous,,,,,,,,,0,12,12,7,,,,,223.3085129,,,,,,224.0383475,224.0533652,,224.5524571,,,,,,,,,,,,223.2698453,flipped,223.3085129,223.3085129,224.0380543,right,0.7138464,None,,,,,,,,,,,,,,,,,811105,2,26,2,2025-06-15_14h25.01.036,מחקר פסיכולוגי,2024.1.4,None,2025-06-15 14h29.59.653811 +0300,
images2/image26.png,new,caucasian,unknown,,,,,,,,,0,13,13,25,,,,,224.6061694,,,,,,225.654861,225.6697274,226.2185709,226.1529133,,,,,,,,,,,,224.5527713,flipped,224.6061694,224.6061694,225.6545791,left,1.0427186,None,,,,,,,,,,,,,,,,,811105,2,26,2,2025-06-15_14h25.01.036,מחקר פסיכולוגי,2024.1.4,None,2025-06-15 14h29.59.653811 +0300,
images2/image59.png,old,caucasian,unknown,,,,,,,,,0,14,14,58,,,,,226.2185709,,,,,,226.9718437,226.9855829,227.5220321,227.4693904,,,,,,,,,,,,226.1531883,normal,226.2185709,226.2185709,226.9715507,right,0.7369974,None,,,,,,,,,,,,,,,,,811105,2,26,2,2025-06-15_14h25.01.036,מחקר פסיכולוגי,2024.1.4,None,2025-06-15 14h29.59.653811 +0300,
images2/image17.png,new,afrikan,unknown,,,,,,,,,0,15,15,16,,,,,227.5220321,,,,,,228.4881273,228.5023368,229.0338903,228.9868493,,,,,,,,,,,,227.4697281,normal,227.5220321,227.5220321,228.4878248,left,0.9556664,None,,,,,,,,,,,,,,,,,811105,2,26,2,2025-06-15_14h25.01.036,מחקר פסיכולוגי,2024.1.4,None,2025-06-15 14h29.59.653811 +0300,
images2/image29.png,new,caucasian,unknown,,,,,,,,,0,16,16,28,,,,,229.0338903,,,,,,230.171822,230.1854538,230.7024405,230.6695386,,,,,,,,,,,,228.9871396,flipped,229.0338903,229.0338903,230.1714769,left,1.1301378,None,,,,,,,,,,,,,,,,,811105,2,26,2,2025-06-15_14h25.01.036,מחקר פסיכולוגי,2024.1.4,None,2025-06-15 14h29.59.653811 +0300,
images2/image10.png,new,caucasian,famous,,,,,,,,,0,17,17,9,,,,,230.7024405,,,,,,231.7548747,231.7687714,232.3412892,232.2526295,,,,,,,,,,,,230.6698228,normal,230.7024405,230.7024405,231.7545963,left,1.0402172,None,,,,,,,,,,,,,,,,,811105,2,26,2,2025-06-15_14h25.01.036,מחקר פסיכולוגי,2024.1.4,None,2025-06-15 14h29.59.653811 +0300,
images2/image25.png,new,caucasian,unknown,,,,,,,,,0,18,18,24,,,,,232.3412892,,,,,,233.5714507,233.5852113,234.0911986,234.0694669,,,,,,,,,,,,232.2529779,normal,232.3412892,232.3412892,233.571159,left,1.2284337,None,,,,,,,,,,,,,,,,,811105,2,26,2,2025-06-15_14h25.01.036,מחקר פסיכולוגי,2024.1.4,None,2025-06-15 14h29.59.653811 +0300,
images2/image40.png,old,afrikan,famous,,,,,,,,,0,19,19,39,,,,,234.0911986,,,,,,234.7048255,234.7187483,235.230246,235.2024854,,,,,,,,,,,,234.0697513,normal,234.0911986,234.0911986,234.7045498,right,0.6115669,None,,,,,,,,,,,,,,,,,811105,2,26,2,2025-06-15_14h25.01.036,מחקר פסיכולוגי,2024.1.4,None,2025-06-15 14h29.59.653811 +0300,
images2/image38.png,old,afrikan,famous,,,,,,,,,0,20,20,37,,,,,235.230246,,,,,,236.1721589,236.1857066,236.703625,236.6692659,,,,,,,,,,,,235.2027802,flipped,235.230246,235.230246,236.1717209,right,0.9276805,None,,,,,,,,,,,,,,,,,811105,2,26,2,2025-06-15_14h25.01.036,מחקר פסיכולוגי,2024.1.4,None,2025-06-15 14h29.59.653811 +0300,
images2/image6.png,new,afrikan,famous,,,,,,,,,0,21,21,5,,,,,236.703625,,,,,,238.1046651,238.1187339,238.6285443,238.6030272,,,,,,,,,,,,236.6695989,normal,236.703625,236.703625,238.1043682,left,1.3931571,None,,,,,,,,,,,,,,,,,811105,2,26,2,2025-06-15_14h25.01.036,מחקר פסיכולוגי,2024.1.4,None,2025-06-15 14h29.59.653811 +0300,
images2/image48.png,old,caucasian,famous,,,,,,,,,0,22,22,47,,,,,238.6285443,,,,,,239.6380974,239.651836,240.1744679,240.1360319,,,,,,,,,,,,238.6033241,flipped,238.6285443,238.6285443,239.6378203,right,1.0049584,None,,,,,,,,,,,,,,,,,811105,2,26,2,2025-06-15_14h25.01.036,מחקר פסיכולוגי,2024.1.4,None,2025-06-15 14h29.59.653811 +0300,
images2/image23.png,new,afrikan,unknown,,,,,,,,,0,23,23,22,,,,,240.1744679,,,,,,241.1549021,241.1688038,241.7067502,241.6523046,,,,,,,,,,,,240.1363391,normal,240.1744679,240.1744679,241.1545781,left,0.9733317,None,,,,,,,,,,,,,,,,,811105,2,26,2,2025-06-15_14h25.01.036,מחקר פסיכולוגי,2024.1.4,None,2025-06-15 14h29.59.653811 +0300,
images2/image62.png,old,caucasian,unknown,,,,,,,,,0,24,24,61,,,,,241.7067502,,,,,,242.37159,242.3854372,242.9056882,242.8696936,,,,,,,,,,,,241.6525678,flipped,241.7067502,241.7067502,242.3712188,right,0.6580922,None,,,,,,,,,,,,,,,,,811105,2,26,2,2025-06-15_14h25.01.036,מחקר פסיכולוגי,2024.1.4,None,2025-06-15 14h29.59.653811 +0300,
images2/image55.png,old,afrikan,unknown,,,,,,,,,0,25,25,54,,,,,242.9056882,,,,,,243.7213164,243.7351275,244.2589297,244.2198375,,,,,,,,,,,,242.8701373,normal,242.9056882,242.9056882,243.7210211,right,0.8058386,None,,,,,,,,,,,,,,,,,811105,2,26,2,2025-06-15_14h25.01.036,מחקר פסיכולוגי,2024.1.4,None,2025-06-15 14h29.59.653811 +0300,
images2/image3.png,new,afrikan,famous,,,,,,,,,0,26,26,2,,,,,244.2589297,,,,,,244.9551002,244.9687636,245.4705385,245.4524597,,,,,,,,,,,,244.2201304,normal,244.2589297,244.2589297,244.9548046,left,0.6947764,None,,,,,,,,,,,,,,,,,811105,2,26,2,2025-06-15_14h25.01.036,מחקר פסיכולוגי,2024.1.4,None,2025-06-15 14h29.59.653811 +0300,
images2/image46.png,old,caucasian,famous,,,,,,,,,0,27,27,45,,,,,245.4705385,,,,,,246.2550195,246.268371,246.7905807,246.7525276,,,,,,,,,,,,245.452748,normal,245.4705385,245.4705385,246.2546929,right,0.780398,None,,,,,,,,,,,,,,,,,811105,2,26,2,2025-06-15_14h25.01.036,מחקר פסיכולוגי,2024.1.4,None,2025-06-15 14h29.59.653811 +0300,
images2/image27.png,new,caucasian,unknown,,,,,,,,,0,28,28,26,,,,,246.7905807,,,,,,248.1876924,248.201833,248.7039902,248.6864157,,,,,,,,,,,,246.7528243,flipped,246.7905807,246.7905807,248.1874158,left,1.3810491,None,,,,,,,,,,,,,,,,,811105,2,26,2,2025-06-15_14h25.01.036,מחקר פסיכולוגי,2024.1.4,None,2025-06-15 14h29.59.653811 +0300,
images2/image45.png,old,caucasian,famous,,,,,,,,,0,29,29,44,,,,,248.7039902,,,,,,249.5710856,249.5851433,250.0875332,250.0689509,,,,,,,,,,,,248.6868702,normal,248.7039902,248.7039902,249.5708029,right,0.8565915,None,,,,,,,,,,,,,,,,,811105,2,26,2,2025-06-15_14h25.01.036,מחקר פסיכולוגי,2024.1.4,None,2025-06-15 14h29.59.653811 +0300,
images2/image42.png,old,caucasian,famous,,,,,,,,,0,30,30,41,,,,,250.0875332,,,,,,251.6746928,251.6850176,252.2048591,252.1690284,,,,,,,,,,,,250.0692768,flipped,250.0875332,250.0875332,251.6744155,right,1.5857748,None,,,,,,,,,,,,,,,,,811105,2,26,2,2025-06-15_14h25.01.036,מחקר פסיכולוגי,2024.1.4,None,2025-06-15 14h29.59.653811 +0300,
images2/image30.png,new,caucasian,unknown,,,,,,,,,0,31,31,29,,,,,252.2048591,,,,,,253.0045217,253.0182197,253.5260015,253.5030242,,,,,,,,,,,,252.1693237,normal,252.2048591,252.2048591,253.0042407,left,0.7874303,None,,,,,,,,,,,,,,,,,811105,2,26,2,2025-06-15_14h25.01.036,מחקר פסיכולוגי,2024.1.4,None,2025-06-15 14h29.59.653811 +0300,
images2/image2.png,new,afrikan,famous,,,,,,,,,0,32,32,1,,,,,253.5260015,,,,,,255.1545737,255.1683083,255.6704711,255.6525115,,,,,,,,,,,,253.5036113,flipped,253.5260015,253.5260015,255.1542706,right,1.6160159,None,,,,,,,,,,,,,,,,,811105,2,26,2,2025-06-15_14h25.01.036,מחקר פסיכולוגי,2024.1.4,None,2025-06-15 14h29.59.653811 +0300,
images2/image33.png,old,afrikan,famous,,,,,,,,,0,33,33,32,,,,,255.6704711,,,,,,257.4043078,257.4182767,257.9763415,257.9023478,,,,,,,,,,,,255.6527834,flipped,255.6704711,255.6704711,257.4040274,right,1.7263657,None,,,,,,,,,,,,,,,,,811105,2,26,2,2025-06-15_14h25.01.036,מחקר פסיכולוגי,2024.1.4,None,2025-06-15 14h29.59.653811 +0300,
images2/image28.png,new,caucasian,unknown,,,,,,,,,0,34,34,27,,,,,257.9763415,,,,,,258.6878654,258.7015677,259.2338919,259.1873055,,,,,,,,,,,,257.9026506,normal,257.9763415,257.9763415,258.6875661,left,0.7018877,None,,,,,,,,,,,,,,,,,811105,2,26,2,2025-06-15_14h25.01.036,מחקר פסיכולוגי,2024.1.4,None,2025-06-15 14h29.59.653811 +0300,
images2/image4.png,new,afrikan,famous,,,,,,,,,0,35,35,3,,,,,259.2338919,,,,,,259.9384927,259.9517228,260.4744529,260.4357448,,,,,,,,,,,,259.1879094,flipped,259.2338919,259.2338919,259.9381373,left,0.7015774,None,,,,,,,,,,,,,,,,,811105,2,26,2,2025-06-15_14h25.01.036,מחקר פסיכולוגי,2024.1.4,None,2025-06-15 14h29.59.653811 +0300,
images2/image14.png,new,caucasian,famous,,,,,,,,,0,36,36,13,,,,,260.4744529,,,,,,262.1049445,262.1182566,262.6287201,262.6022495,,,,,,,,,,,,260.436071,flipped,260.4744529,260.4744529,262.1045788,right,1.6214278,None,,,,,,,,,,,,,,,,,811105,2,26,2,2025-06-15_14h25.01.036,מחקר פסיכולוגי,2024.1.4,None,2025-06-15 14h29.59.653811 +0300,
images2/image44.png,old,caucasian,famous,,,,,,,,,0,37,37,43,,,,,262.6287201,,,,,,263.3546518,263.3684247,263.8703466,263.8524417,,,,,,,,,,,,262.6025324,normal,262.6287201,262.6287201,263.3543509,right,0.7151184,None,,,,,,,,,,,,,,,,,811105,2,26,2,2025-06-15_14h25.01.036,מחקר פסיכולוגי,2024.1.4,None,2025-06-15 14h29.59.653811 +0300,
images2/image54.png,old,afrikan,unknown,,,,,,,,,0,38,38,53,,,,,263.8703466,,,,,,264.4551641,264.4681657,264.9889949,264.9522137,,,,,,,,,,,,263.8527472,normal,263.8703466,263.8703466,264.4548709,left,0.5729497,None,,,,,,,,,,,,,,,,,811105,2,26,2,2025-06-15_14h25.01.036,מחקר פסיכולוגי,2024.1.4,None,2025-06-15 14h29.59.653811 +0300,
images2/image16.png,new,caucasian,famous,,,,,,,,,0,39,39,15,,,,,264.9889949,,,,,,266.1544807,266.1682009,266.6891182,266.6523913,,,,,,,,,,,,264.952501,flipped,264.9889949,264.9889949,266.1541802,right,1.1536596,None,,,,,,,,,,,,,,,,,811105,2,26,2,2025-06-15_14h25.01.036,מחקר פסיכולוגי,2024.1.4,None,2025-06-15 14h29.59.653811 +0300,
images2/image31.png,new,caucasian,unknown,,,,,,,,,0,40,40,30,,,,,266.6891182,,,,,,268.7708489,268.7849658,269.2955521,269.2687995,,,,,,,,,,,,266.6526945,flipped,266.6891182,266.6891182,268.7705475,left,2.0724831,None,,,,,,,,,,,,,,,,,811105,2,26,2,2025-06-15_14h25.01.036,מחקר פסיכולוגי,2024.1.4,None,2025-06-15 14h29.59.653811 +0300,
images2/image57.png,old,caucasian,unknown,,,,,,,,,0,41,41,56,,,,,269.2955521,,,,,,270.8877661,270.901405,271.4071992,271.3852291,,,,,,,,,,,,269.2690969,flipped,269.2955521,269.2955521,270.8874844,right,1.5876724,None,,,,,,,,,,,,,,,,,811105,2,26,2,2025-06-15_14h25.01.036,מחקר פסיכולוגי,2024.1.4,None,2025-06-15 14h29.59.653811 +0300,
images2/image19.png,new,afrikan,unknown,,,,,,,,,0,42,42,18,,,,,271.4071992,,,,,,272.1043306,272.1179711,272.6246648,272.6020381,,,,,,,,,,,,271.3855033,normal,271.4071992,271.4071992,272.1040268,left,0.6817489,None,,,,,,,,,,,,,,,,,811105,2,26,2,2025-06-15_14h25.01.036,מחקר פסיכולוגי,2024.1.4,None,2025-06-15 14h29.59.653811 +0300,
images2/image15.png,new,caucasian,famous,,,,,,,,,0,43,43,14,,,,,272.6246648,,,,,,273.354854,273.3678611,273.8701997,273.8517274,,,,,,,,,,,,272.6023483,normal,272.6246648,272.6246648,273.3545035,left,0.7275544,None,,,,,,,,,,,,,,,,,811105,2,26,2,2025-06-15_14h25.01.036,מחקר פסיכולוגי,2024.1.4,None,2025-06-15 14h29.59.653811 +0300,
images2/image64.png,old,caucasian,unknown,,,,,,,,,0,44,44,63,,,,,273.8701997,,,,,,274.5707796,274.5846374,275.10486,275.0685357,,,,,,,,,,,,273.8519739,flipped,273.8701997,273.8701997,274.5704836,left,0.691929,None,,,,,,,,,,,,,,,,,811105,2,26,2,2025-06-15_14h25.01.036,מחקר פסיכולוגי,2024.1.4,None,2025-06-15 14h29.59.653811 +0300,
images2/image56.png,old,afrikan,unknown,,,,,,,,,0,45,45,55,,,,,275.10486,,,,,,275.7052396,275.7179572,276.25024,276.2021435,,,,,,,,,,,,275.0688311,flipped,275.10486,275.10486,275.704863,right,0.5982139,None,,,,,,,,,,,,,,,,,811105,2,26,2,2025-06-15_14h25.01.036,מחקר פסיכולוגי,2024.1.4,None,2025-06-15 14h29.59.653811 +0300,
images2/image35.png,old,afrikan,famous,,,,,,,,,0,46,46,34,,,,,276.25024,,,,,,276.9051599,276.9182098,277.4295655,277.4024097,,,,,,,,,,,,276.202464,normal,276.25024,276.25024,276.9047067,right,0.6374457,None,,,,,,,,,,,,,,,,,811105,2,26,2,2025-06-15_14h25.01.036,מחקר פסיכולוגי,2024.1.4,None,2025-06-15 14h29.59.653811 +0300,
images2/image47.png,old,caucasian,famous,,,,,,,,,0,47,47,46,,,,,277.4295655,,,,,,278.0716095,278.0845804,278.5867831,278.5689641,,,,,,,,,,,,277.4028893,flipped,277.4295655,277.4295655,278.0712788,right,0.6260474,None,,,,,,,,,,,,,,,,,811105,2,26,2,2025-06-15_14h25.01.036,מחקר פסיכולוגי,2024.1.4,None,2025-06-15 14h29.59.653811 +0300,
images2/image52.png,old,afrikan,unknown,,,,,,,,,0,48,48,51,,,,,278.5867831,,,,,,279.2546604,279.2685315,279.7852504,279.7519698,,,,,,,,,,,,278.5692512,normal,278.5867831,278.5867831,279.2543235,right,0.6587472,None,,,,,,,,,,,,,,,,,811105,2,26,2,2025-06-15_14h25.01.036,מחקר פסיכולוגי,2024.1.4,None,2025-06-15 14h29.59.653811 +0300,
images2/image12.png,new,caucasian,famous,,,,,,,,,0,49,49,11,,,,,279.7852504,,,,,,280.9037918,280.9180163,281.4247387,281.4019908,,,,,,,,,,,,279.752264,flipped,279.7852504,279.7852504,280.9035114,left,1.1028896,None,,,,,,,,,,,,,,,,,811105,2,26,2,2025-06-15_14h25.01.036,מחקר פסיכולוגי,2024.1.4,None,2025-06-15 14h29.59.653811 +0300,
images2/image1.png,new,afrikan,famous,,,,,,,,,0,50,50,0,,,,,281.4247387,,,,,,282.2708313,282.2844728,282.7865799,282.7682909,,,,,,,,,,,,281.4023015,flipped,281.4247387,281.4247387,282.2705348,left,0.8301329,None,,,,,,,,,,,,,,,,,811105,2,26,2,2025-06-15_14h25.01.036,מחקר פסיכולוגי,2024.1.4,None,2025-06-15 14h29.59.653811 +0300,
images2/image43.png,old,caucasian,famous,,,,,,,,,0,51,51,42,,,,,282.7865799,,,,,,283.5205596,283.5344653,284.0363177,284.01847,,,,,,,,,,,,282.7685528,flipped,282.7865799,282.7865799,283.5202806,right,0.7307341,None,,,,,,,,,,,,,,,,,811105,2,26,2,2025-06-15_14h25.01.036,מחקר פסיכולוגי,2024.1.4,None,2025-06-15 14h29.59.653811 +0300,
images2/image34.png,old,afrikan,famous,,,,,,,,,0,52,52,33,,,,,284.0363177,,,,,,285.1541816,285.1679951,285.6701076,285.6519429,,,,,,,,,,,,284.018741,flipped,284.0363177,284.0363177,285.153859,left,1.1143797,None,,,,,,,,,,,,,,,,,811105,2,26,2,2025-06-15_14h25.01.036,מחקר פסיכולוגי,2024.1.4,None,2025-06-15 14h29.59.653811 +0300,
images2/image63.png,old,caucasian,unknown,,,,,,,,,0,53,53,62,,,,,285.6701076,,,,,,286.3716612,286.3845086,286.8950312,286.8690427,,,,,,,,,,,,285.6522114,normal,285.6701076,285.6701076,286.3712196,right,0.6844299,None,,,,,,,,,,,,,,,,,811105,2,26,2,2025-06-15_14h25.01.036,מחקר פסיכולוגי,2024.1.4,None,2025-06-15 14h29.59.653811 +0300,
images2/image37.png,old,afrikan,famous,,,,,,,,,0,54,54,36,,,,,286.8950312,,,,,,287.9218378,287.9360199,,288.4346273,,,,,,,,,,,,286.8693265,normal,286.8950312,286.8950312,287.9209331,right,1.0098008,None,,,,,,,,,,,,,,,,,811105,2,26,2,2025-06-15_14h25.01.036,מחקר פסיכולוגי,2024.1.4,None,2025-06-15 14h29.59.653811 +0300,
images2/image7.png,new,afrikan,famous,,,,,,,,,0,55,55,6,,,,,288.4754647,,,,,,290.1210733,290.1344404,290.6539066,290.6187661,,,,,,,,,,,,288.4351229,normal,288.4754647,288.4754647,290.1207137,left,1.6358407,None,,,,,,,,,,,,,,,,,811105,2,26,2,2025-06-15_14h25.01.036,מחקר פסיכולוגי,2024.1.4,None,2025-06-15 14h29.59.653811 +0300,
images2/image9.png,new,caucasian,famous,,,,,,,,,0,56,56,8,,,,,290.6539066,,,,,,292.1372336,292.1510433,292.6608129,292.6349552,,,,,,,,,,,,290.6190387,flipped,290.6539066,290.6539066,292.1369542,left,1.4790333,None,,,,,,,,,,,,,,,,,811105,2,26,2,2025-06-15_14h25.01.036,מחקר פסיכולוגי,2024.1.4,None,2025-06-15 14h29.59.653811 +0300,
images2/image49.png,old,afrikan,unknown,,,,,,,,,0,57,57,48,,,,,292.6608129,,,,,,294.0205587,294.0341714,294.5444719,294.5182358,,,,,,,,,,,,292.6352224,flipped,292.6608129,292.6608129,294.0202656,right,1.3558263,None,,,,,,,,,,,,,,,,,811105,2,26,2,2025-06-15_14h25.01.036,מחקר פסיכולוגי,2024.1.4,None,2025-06-15 14h29.59.653811 +0300,
images2/image58.png,old,caucasian,unknown,,,,,,,,,0,58,58,57,,,,,294.5444719,,,,,,295.2037241,295.2176697,295.7248817,295.7015158,,,,,,,,,,,,294.5185213,normal,294.5444719,294.5444719,295.2034454,left,0.6557448,None,,,,,,,,,,,,,,,,,811105,2,26,2,2025-06-15_14h25.01.036,מחקר פסיכולוגי,2024.1.4,None,2025-06-15 14h29.59.653811 +0300,
images2/image13.png,new,caucasian,famous,,,,,,,,,0,59,59,12,,,,,295.7248817,,,,,,296.6040952,296.6176747,297.1252779,297.1017052,,,,,,,,,,,,295.7017843,normal,295.7248817,295.7248817,296.603792,left,0.8727853,None,,,,,,,,,,,,,,,,,811105,2,26,2,2025-06-15_14h25.01.036,מחקר פסיכולוגי,2024.1.4,None,2025-06-15 14h29.59.653811 +0300,
images2/image20.png,new,afrikan,unknown,,,,,,,,,0,60,60,19,,,,,297.1252779,,,,,,298.0538332,298.0675844,298.584823,298.5515184,,,,,,,,,,,,297.101999,flipped,297.1252779,297.1252779,298.0535372,left,0.912505,None,,,,,,,,,,,,,,,,,811105,2,26,2,2025-06-15_14h25.01.036,מחקר פסיכולוגי,2024.1.4,None,2025-06-15 14h29.59.653811 +0300,
images2/image5.png,new,afrikan,famous,,,,,,,,,0,61,61,4,,,,,298.584823,,,,,,299.353651,299.3676357,299.8721254,299.8517539,,,,,,,,,,,,298.5517784,normal,298.584823,298.584823,299.35337,left,0.7529172,None,,,,,,,,,,,,,,,,,811105,2,26,2,2025-06-15_14h25.01.036,מחקר פסיכולוגי,2024.1.4,None,2025-06-15 14h29.59.653811 +0300,
images2/image24.png,new,afrikan,unknown,,,,,,,,,0,62,62,23,,,,,299.8721254,,,,,,300.4214497,300.434255,300.9363398,300.9182233,,,,,,,,,,,,299.8520437,flipped,299.8721254,299.8721254,300.4210621,left,0.5379144,None,,,,,,,,,,,,,,,,,811105,2,26,2,2025-06-15_14h25.01.036,מחקר פסיכולוגי,2024.1.4,None,2025-06-15 14h29.59.653811 +0300,
images2/image50.png,old,afrikan,unknown,,,,,,,,,0,63,63,49,,,,,300.9363398,,,,,,301.6547725,301.6677616,302.171788,302.1516359,,,,,,,,,,,,300.9185304,flipped,300.9363398,300.9363398,301.6543865,left,0.7067747,None,,,,,,,,,,,,,,,,,811105,2,26,2,2025-06-15_14h25.01.036,מחקר פסיכולוגי,2024.1.4,None,2025-06-15 14h29.59.653811 +0300,
,,,,,,,,,,,,,,,,,,,,,,,,,,,,,,,,,,,,,,,,,,,,,,,,,302.1516981,302.171788,302.171788,324.2885528,,,,,,,,,,,,,811105,2,26,2,2025-06-15_14h25.01.036,מחקר פסיכולוגי,2024.1.4,None,2025-06-15 14h29.59.653811 +0300,
,,,,,,,,,,,,,,,,,,,,,,,,,,324.2885813,324.3008415,324.8678153,324.7850642,,,,,,,,,,,,,,,,,,,,,,,,,,,,,,,,,,,,811105,2,26,2,2025-06-15_14h25.01.036,מחקר פסיכולוגי,2024.1.4,None,2025-06-15 14h29.59.653811 +0300,
,,,,new | caucasian | flipped,images2/image9.png,"האדם בתמונה הוא:
1. זמר 
2. שחקן
3. ספורטאי
4. לא מכיר/ה
",2,,,,,,,,,0,0,0,8,324.8678153,,,,,,339.7531661,339.7670735,340.2689507,340.2514402,,,,,,,,,,,,,,,,,,,,,,,,324.8254918,324.8678153,324.8678153,324.8678153,339.7526905,2,14.8754428,None,,,,,811105,2,26,2,2025-06-15_14h25.01.036,מחקר פסיכולוגי,2024.1.4,None,2025-06-15 14h29.59.653811 +0300,
,,,,new | caucasian | flipped,images2/image16.png,"האדם בתמונה הוא:
1. זמר 
2. שחקן
3. ספורטאי
4. לא מכיר/ה
",2,,,,,,,,,0,1,1,15,340.2689507,,,,,,345.1033187,345.1170491,345.6183443,345.6008185,,,,,,,,,,,,,,,,,,,,,,,,340.2518562,340.2689507,340.2689507,340.2689507,345.1030127,3,4.8310715,None,,,,,811105,2,26,2,2025-06-15_14h25.01.036,מחקר פסיכולוגי,2024.1.4,None,2025-06-15 14h29.59.653811 +0300,
,,,,old | caucasian | flipped,images2/image43.png,"האדם בתמונה הוא:
1. זמר 
2. שחקן
3. ספורטאי
4. לא מכיר/ה
",1,,,,,,,,,0,2,2,30,345.6183443,,,,,,347.5699124,347.5833984,348.0852062,348.0673436,,,,,,,,,,,,,,,,,,,,,,,,345.6011296,345.6183443,345.6183443,345.6183443,347.5696079,1,1.9359717,None,,,,,811105,2,26,2,2025-06-15_14h25.01.036,מחקר פסיכולוגי,2024.1.4,None,2025-06-15 14h29.59.653811 +0300,
,,,,old | caucasian | normal,images2/image46.png,"האדם בתמונה הוא:
1. זמר 
2. שחקן
3. ספורטאי
4. לא מכיר/ה
",1,,,,,,,,,0,3,3,33,348.0852062,,,,,,349.5859427,349.6001816,350.1021621,350.0847594,,,,,,,,,,,,,,,,,,,,,,,,348.0676205,348.0852062,348.0852062,348.0852062,349.5856624,1,1.494419,None,,,,,811105,2,26,2,2025-06-15_14h25.01.036,מחקר פסיכולוגי,2024.1.4,None,2025-06-15 14h29.59.653811 +0300,
,,,,new | caucasian | flipped,images2/image14.png,"האדם בתמונה הוא:
1. זמר 
2. שחקן
3. ספורטאי
4. לא מכיר/ה
",2,,,,,,,,,0,4,4,13,350.1021621,,,,,,352.2699397,352.2832664,352.7983914,352.7673463,,,,,,,,,,,,,,,,,,,,,,,,350.0852904,350.1021621,350.1021621,350.1021621,352.2696435,2,2.1523203,None,,,,,811105,2,26,2,2025-06-15_14h25.01.036,מחקר פסיכולוגי,2024.1.4,None,2025-06-15 14h29.59.653811 +0300,
,,,,new | afrikan | normal,images2/image5.png,"האדם בתמונה הוא:
1. זמר 
2. שחקן
3. ספורטאי
4. לא מכיר/ה
",2,,,,,,,,,0,5,5,4,352.7983914,,,,,,357.3029647,357.3167997,357.8179737,357.8006208,,,,,,,,,,,,,,,,,,,,,,,,352.7676542,352.7983914,352.7983914,352.7983914,357.3026476,3,4.4982087,None,,,,,811105,2,26,2,2025-06-15_14h25.01.036,מחקר פסיכולוגי,2024.1.4,None,2025-06-15 14h29.59.653811 +0300,
,,,,old | afrikan | normal,images2/image40.png,"האדם בתמונה הוא:
1. זמר 
2. שחקן
3. עתונאי
4. לא מכיר/ה
",1,,,,,,,,,0,6,6,27,357.8179737,,,,,,360.2198894,360.233307,360.7360972,360.7171436,,,,,,,,,,,,,,,,,,,,,,,,357.8009254,357.8179737,357.8179737,357.8179737,360.2195073,1,2.3842923,None,,,,,811105,2,26,2,2025-06-15_14h25.01.036,מחקר פסיכולוגי,2024.1.4,None,2025-06-15 14h29.59.653811 +0300,
,,,,new | afrikan | flipped,images2/image8.png,"האדם בתמונה הוא:
1. זמר 
2. שחקן
3. ספורטאי
4. לא מכיר/ה
",2,,,,,,,,,0,7,7,7,360.7360972,,,,,,363.0864534,363.0999071,363.6027389,363.5837583,,,,,,,,,,,,,,,,,,,,,,,,360.7174564,360.7360972,360.7360972,360.7360972,363.0861511,2,2.3378065,None,,,,,811105,2,26,2,2025-06-15_14h25.01.036,מחקר פסיכולוגי,2024.1.4,None,2025-06-15 14h29.59.653811 +0300,
,,,,new | afrikan | normal,images2/image6.png,"האדם בתמונה הוא:
1. זמר 
2. שחקן
3. ספורטאי
4. לא מכיר/ה
",2,,,,,,,,,0,8,8,5,363.6027389,,,,,,365.9191272,365.9331375,366.4350479,366.4172639,,,,,,,,,,,,,,,,,,,,,,,,363.5840397,363.6027389,363.6027389,363.6027389,365.9188359,4,2.307477,None,,,,,811105,2,26,2,2025-06-15_14h25.01.036,מחקר פסיכולוגי,2024.1.4,None,2025-06-15 14h29.59.653811 +0300,
,,,,new | caucasian | normal,images2/image13.png,"האדם בתמונה הוא:
1. זמר 
2. שחקן
3. ספורטאי
4. לא מכיר/ה
",2,,,,,,,,,0,9,9,12,366.4350479,,,,,,368.5864949,368.5999016,369.1019146,369.0836452,,,,,,,,,,,,,,,,,,,,,,,,366.4175935,366.4350479,366.4350479,366.4350479,368.5861771,2,2.1356312,None,,,,,811105,2,26,2,2025-06-15_14h25.01.036,מחקר פסיכולוגי,2024.1.4,None,2025-06-15 14h29.59.653811 +0300,
,,,,new | afrikan | flipped,images2/image1.png,"האדם בתמונה הוא:
1. זמר
2. שחקן
3. ספורטאי
4. לא מכיר/ה
",1,,,,,,,,,0,10,10,0,369.1019146,,,,,,371.0031116,371.0163387,371.5201665,371.5002413,,,,,,,,,,,,,,,,,,,,,,,,369.0839305,369.1019146,369.1019146,369.1019146,371.0028195,1,1.8996877,None,,,,,811105,2,26,2,2025-06-15_14h25.01.036,מחקר פסיכולוגי,2024.1.4,None,2025-06-15 14h29.59.653811 +0300,
,,,,new | afrikan | normal,images2/image18.png,"האדם בתמונה הוא:
1. זמר 
2. שחקן
3. ספורטאי
4. לא מכיר/ה
",4,,,,,,,,,0,11,11,16,371.5201665,,,,,,372.9855311,372.9994932,373.5009796,373.4836697,,,,,,,,,,,,,,,,,,,,,,,,371.5005128,371.5201665,371.5201665,371.5201665,372.9852421,4,1.4502042,None,,,,,811105,2,26,2,2025-06-15_14h25.01.036,מחקר פסיכולוגי,2024.1.4,None,2025-06-15 14h29.59.653811 +0300,
,,,,old | afrikan | normal,images2/image39.png,"האדם בתמונה הוא:
1. זמר 
2. שחקן
3. עתונאי
4. לא מכיר/ה
",2,,,,,,,,,0,12,12,26,373.5009796,,,,,,376.7193533,376.7328824,377.2345685,377.2171026,,,,,,,,,,,,,,,,,,,,,,,,373.48399,373.5009796,373.5009796,373.5009796,376.719046,2,3.2028742,None,,,,,811105,2,26,2,2025-06-15_14h25.01.036,מחקר פסיכולוגי,2024.1.4,None,2025-06-15 14h29.59.653811 +0300,
,,,,new | caucasian | normal,images2/image15.png,"האדם בתמונה הוא:
1. זמר 
2. שחקן
3. ספורטאי
4. לא מכיר/ה
",2,,,,,,,,,0,13,13,14,377.2345685,,,,,,379.4191082,379.4328958,379.9348461,379.9169116,,,,,,,,,,,,,,,,,,,,,,,,377.217405,377.2345685,377.2345685,377.2345685,379.4188046,4,2.179844,None,,,,,811105,2,26,2,2025-06-15_14h25.01.036,מחקר פסיכולוגי,2024.1.4,None,2025-06-15 14h29.59.653811 +0300,
,,,,old | caucasian | flipped,images2/image47.png,"האדם בתמונה הוא:
1. זמר 
2. שחקן
3. ספורטאי
4. לא מכיר/ה
",1,,,,,,,,,0,14,14,34,379.9348461,,,,,,381.4521013,381.4663092,381.967929,381.9501978,,,,,,,,,,,,,,,,,,,,,,,,379.9175569,379.9348461,379.9348461,379.9348461,381.4518178,1,1.5117348,None,,,,,811105,2,26,2,2025-06-15_14h25.01.036,מחקר פסיכולוגי,2024.1.4,None,2025-06-15 14h29.59.653811 +0300,
,,,,new | caucasian | normal,images2/image11.png,"האדם בתמונה הוא:
1. זמר 
2. שחקן
3. ספורטאי
4. לא מכיר/ה
",3,,,,,,,,,0,15,15,10,381.967929,,,,,,383.7692188,383.7828944,384.2986137,384.2673399,,,,,,,,,,,,,,,,,,,,,,,,381.9504666,381.967929,381.967929,381.967929,383.7689121,3,1.7978932,None,,,,,811105,2,26,2,2025-06-15_14h25.01.036,מחקר פסיכולוגי,2024.1.4,None,2025-06-15 14h29.59.653811 +0300,
,,,,old | caucasian | flipped,images2/image48.png,"האדם בתמונה הוא:
1. זמר 
2. שחקן
3. ספורטאי
4. לא מכיר/ה
",2,,,,,,,,,0,16,16,35,384.2986137,,,,,,386.4520094,386.4663946,386.9809534,386.9503313,,,,,,,,,,,,,,,,,,,,,,,,384.2676553,384.2986137,384.2986137,384.2986137,386.4517245,2,2.1461543,None,,,,,811105,2,26,2,2025-06-15_14h25.01.036,מחקר פסיכולוגי,2024.1.4,None,2025-06-15 14h29.59.653811 +0300,
,,,,new | caucasian | flipped,images2/image12.png,"האדם בתמונה הוא:
1. זמר 
2. שחקן
3. ספורטאי
4. לא מכיר/ה
",2,,,,,,,,,0,17,17,11,386.9809534,,,,,,390.0689928,390.0826812,390.5848281,390.5670141,,,,,,,,,,,,,,,,,,,,,,,,386.9506447,386.9809534,386.9809534,386.9809534,390.0686918,2,3.0815727,None,,,,,811105,2,26,2,2025-06-15_14h25.01.036,מחקר פסיכולוגי,2024.1.4,None,2025-06-15 14h29.59.653811 +0300,
,,,,old | caucasian | flipped,images2/image42.png,"האדם בתמונה הוא:
1. זמר 
2. שחקן
3. ספורטאי
4. לא מכיר/ה
",2,,,,,,,,,0,18,18,29,390.5848281,,,,,,395.1691419,395.1824875,395.6844621,395.6665335,,,,,,,,,,,,,,,,,,,,,,,,390.5674229,390.5848281,390.5848281,390.5848281,395.1687563,2,4.5732864,None,,,,,811105,2,26,2,2025-06-15_14h25.01.036,מחקר פסיכולוגי,2024.1.4,None,2025-06-15 14h29.59.653811 +0300,
,,,,new | afrikan | flipped,images2/image4.png,"האדם בתמונה הוא:
1. זמר 
2. שחקן
3. ספורטאי
4. לא מכיר/ה
",1,,,,,,,,,0,19,19,3,395.6844621,,,,,,399.4023115,399.415997,399.9505005,399.899633,,,,,,,,,,,,,,,,,,,,,,,,395.6667963,395.6844621,395.6844621,395.6844621,399.4019064,1,3.7016024,None,,,,,811105,2,26,2,2025-06-15_14h25.01.036,מחקר פסיכולוגי,2024.1.4,None,2025-06-15 14h29.59.653811 +0300,
,,,,new | caucasian | normal,images2/image25.png,"האדם בתמונה הוא:
1. זמר 
2. שחקן
3. ספורטאי
4. לא מכיר/ה
",4,,,,,,,,,0,20,20,18,399.9505005,,,,,,401.6197313,401.6325769,402.1723348,402.1171359,,,,,,,,,,,,,,,,,,,,,,,,399.8999065,399.9505005,399.9505005,399.9505005,401.6192891,4,1.6671163,None,,,,,811105,2,26,2,2025-06-15_14h25.01.036,מחקר פסיכולוגי,2024.1.4,None,2025-06-15 14h29.59.653811 +0300,
,,,,old | caucasian | normal,images2/image45.png,"האדם בתמונה הוא:
1. זמר 
2. שחקן
3. ספורטאי
4. לא מכיר/ה
",2,,,,,,,,,0,21,21,32,402.1723348,,,,,,409.0521834,409.0657667,409.5678645,409.5502923,,,,,,,,,,,,,,,,,,,,,,,,402.1175752,402.1723348,402.1723348,402.1723348,409.0518583,2,6.8647929,None,,,,,811105,2,26,2,2025-06-15_14h25.01.036,מחקר פסיכולוגי,2024.1.4,None,2025-06-15 14h29.59.653811 +0300,
,,,,new | afrikan | flipped,images2/image2.png,"האדם בתמונה הוא:
1. זמר 
2. שחקן
3. ספורטאי
4. לא מכיר/ה
",1,,,,,,,,,0,22,22,1,409.5678645,,,,,,411.4682693,411.4823882,412.0001626,411.9670455,,,,,,,,,,,,,,,,,,,,,,,,409.5505934,409.5678645,409.5678645,409.5678645,411.4679839,4,1.8853296,None,,,,,811105,2,26,2,2025-06-15_14h25.01.036,מחקר פסיכולוגי,2024.1.4,None,2025-06-15 14h29.59.653811 +0300,
,,,,old | afrikan | normal,images2/image35.png,"האדם בתמונה הוא:
1. זמר 
2. שחקן
3. פוליטיקאי
4. לא מכיר/ה
",3,,,,,,,,,0,23,23,22,412.0001626,,,,,,417.1025817,417.1155372,417.6309058,417.5996503,,,,,,,,,,,,,,,,,,,,,,,,411.9673951,412.0001626,412.0001626,412.0001626,417.102294,3,5.0945983,None,,,,,811105,2,26,2,2025-06-15_14h25.01.036,מחקר פסיכולוגי,2024.1.4,None,2025-06-15 14h29.59.653811 +0300,
,,,,old | afrikan | flipped,images2/image36.png,"האדם בתמונה הוא:
1. זמר 
2. שחקן
3.פוליטיקאי
4. לא מכיר/ה
",1,,,,,,,,,0,24,24,23,417.6309058,,,,,,421.085403,421.0988598,421.601358,421.5827045,,,,,,,,,,,,,,,,,,,,,,,,417.5999888,417.6309058,417.6309058,417.6309058,421.0851244,1,3.438419,None,,,,,811105,2,26,2,2025-06-15_14h25.01.036,מחקר פסיכולוגי,2024.1.4,None,2025-06-15 14h29.59.653811 +0300,
,,,,old | caucasian | normal,images2/image44.png,"האדם בתמונה הוא:
1. זמר 
2. שחקן
3. ספורטאי
4. לא מכיר/ה
",2,,,,,,,,,0,25,25,31,421.601358,,,,,,423.2015855,423.2154062,423.7172738,423.6994191,,,,,,,,,,,,,,,,,,,,,,,,421.5829717,421.601358,421.601358,421.601358,423.2013068,2,1.5920539,None,,,,,811105,2,26,2,2025-06-15_14h25.01.036,מחקר פסיכולוגי,2024.1.4,None,2025-06-15 14h29.59.653811 +0300,
,,,,old | afrikan | flipped,images2/image38.png,"האדם בתמונה הוא:
1. זמר 
2. שחקן
3. עתונאי
4. לא מכיר/ה
",3,,,,,,,,,0,26,26,25,423.7172738,,,,,,425.0686529,425.0822408,425.6062834,425.5661716,,,,,,,,,,,,,,,,,,,,,,,,423.6997506,423.7172738,423.7172738,423.7172738,425.0683758,4,1.3493801,None,,,,,811105,2,26,2,2025-06-15_14h25.01.036,מחקר פסיכולוגי,2024.1.4,None,2025-06-15 14h29.59.653811 +0300,
,,,,old | caucasian | flipped,images2/image62.png,"האדם בתמונה הוא:
1. זמר 
2. שחקן
3. פוליטיקאי
4. לא מכיר/ה
",4,,,,,,,,,0,27,27,19,425.6062834,,,,,,427.184818,427.1987091,427.7287457,427.6827711,,,,,,,,,,,,,,,,,,,,,,,,425.5666108,425.6062834,425.6062834,425.6062834,427.1845211,4,1.5699239,None,,,,,811105,2,26,2,2025-06-15_14h25.01.036,מחקר פסיכולוגי,2024.1.4,None,2025-06-15 14h29.59.653811 +0300,
,,,,old | afrikan | flipped,images2/image33.png,"האדם בתמונה הוא:
1. זמר 
2. שחקן
3.פוליטיקאי
4. לא מכיר/ה
",2,,,,,,,,,0,28,28,20,427.7287457,,,,,,429.5352324,429.5487617,430.0507547,430.0328021,,,,,,,,,,,,,,,,,,,,,,,,427.6830698,427.7287457,427.7287457,427.7287457,429.5349327,4,1.8027042,None,,,,,811105,2,26,2,2025-06-15_14h25.01.036,מחקר פסיכולוגי,2024.1.4,None,2025-06-15 14h29.59.653811 +0300,
,,,,old | afrikan | flipped,images2/image34.png,"האדם בתמונה הוא:
1. זמר 
2. שחקן
3. פוליטיקאי
4. לא מכיר/ה
",2,,,,,,,,,0,29,29,21,430.0507547,,,,,,432.1515729,432.1652377,432.6673129,432.649371,,,,,,,,,,,,,,,,,,,,,,,,430.0330798,430.0507547,430.0507547,430.0507547,432.1512353,2,2.09704,None,,,,,811105,2,26,2,2025-06-15_14h25.01.036,מחקר פסיכולוגי,2024.1.4,None,2025-06-15 14h29.59.653811 +0300,
,,,,new | caucasian | normal,images2/image10.png,"האדם בתמונה הוא:
1. זמר 
2. שחקן
3. ספורטאי
4. לא מכיר/ה
",2,,,,,,,,,0,30,30,9,432.6673129,,,,,,434.2013143,434.2152701,434.719813,434.6993493,,,,,,,,,,,,,,,,,,,,,,,,432.6496733,432.6673129,432.6673129,432.6673129,434.2010342,2,1.5186584,None,,,,,811105,2,26,2,2025-06-15_14h25.01.036,מחקר פסיכולוגי,2024.1.4,None,2025-06-15 14h29.59.653811 +0300,
,,,,new | afrikan | normal,images2/image7.png,"האדם בתמונה הוא:
1. זמר 
2. שחקן
3. ספורטאי
4. לא מכיר/ה
",1,,,,,,,,,0,31,31,6,434.719813,,,,,,436.0179105,436.0321187,436.5343168,436.5166142,,,,,,,,,,,,,,,,,,,,,,,,434.699644,434.719813,434.719813,434.719813,436.0176126,1,1.2940764,None,,,,,811105,2,26,2,2025-06-15_14h25.01.036,מחקר פסיכולוגי,2024.1.4,None,2025-06-15 14h29.59.653811 +0300,
,,,,old | caucasian | normal,images2/image41.png,"האדם בתמונה הוא:
1. זמר 
2. שחקן
3. ספורטאי
4. לא מכיר/ה
",2,,,,,,,,,0,32,32,28,436.5343168,,,,,,437.9845699,437.9985633,438.5008503,438.4827688,,,,,,,,,,,,,,,,,,,,,,,,436.5169338,436.5343168,436.5343168,436.5343168,437.984289,2,1.4347667,None,,,,,811105,2,26,2,2025-06-15_14h25.01.036,מחקר פסיכולוגי,2024.1.4,None,2025-06-15 14h29.59.653811 +0300,
,,,,old | afrikan | normal,images2/image37.png,"האדם בתמונה הוא:
1. זמר 
2. שחקן
3. עתונאי
4. לא מכיר/ה
",1,,,,,,,,,0,33,33,24,438.5008503,,,,,,440.1019565,440.1152523,440.6168922,440.599161,,,,,,,,,,,,,,,,,,,,,,,,438.4830898,438.5008503,438.5008503,438.5008503,440.1015834,1,1.5972465,None,,,,,811105,2,26,2,2025-06-15_14h25.01.036,מחקר פסיכולוגי,2024.1.4,None,2025-06-15 14h29.59.653811 +0300,
,,,,new | afrikan | flipped,images2/image20.png,"האדם בתמונה הוא:
1. זמר 
2. שחקן
3. ספורטאי
4. לא מכיר/ה
",4,,,,,,,,,0,34,34,17,440.6168922,,,,,,441.9180201,441.9318891,442.4339028,442.4161352,,,,,,,,,,,,,,,,,,,,,,,,440.5994881,440.6168922,440.6168922,440.6168922,441.9176871,4,1.2843156,None,,,,,811105,2,26,2,2025-06-15_14h25.01.036,מחקר פסיכולוגי,2024.1.4,None,2025-06-15 14h29.59.653811 +0300,
,,,,new | afrikan | normal,images2/image3.png,"האדם בתמונה הוא:
1. זמר 
2. שחקן
3. ספורטאי
4. לא מכיר/ה
",3,,,,,,,,,0,35,35,2,442.4339028,,,,,,443.9676051,443.9819474,444.4820255,444.4656984,,,,,,,,,,,,,,,,,,,,,,,,442.4165846,442.4339028,442.4339028,442.4339028,443.9673221,4,1.5245507,None,,,,,811105,2,26,2,2025-06-15_14h25.01.036,מחקר פסיכולוגי,2024.1.4,None,2025-06-15 14h29.59.653811 +0300,
,,,,,,,,,,,,,,,,,,,,,,,,,,,,,,,,,,,,,,,,,,,,,,,,,,,,,,,,,,,,,444.465773,444.4820255,447.481858,447.4657201,811105,2,26,2,2025-06-15_14h25.01.036,מחקר פסיכולוגי,2024.1.4,None,2025-06-15 14h29.59.653811 +0300,
,,,,,,,,,,old | caucasian | flipped,old | caucasian | normal,new | caucasian | flipped,new | caucasian | normal,old | afrikan | flipped,old | afrikan | normal,new | afrikan | flipped,new | afrikan | normal,,sum,,,,,,,,,,,,,,,,,,,,,,,,,,,,,,,,,,,,,,,,,,,,,,,,,,,,,,,
,,,,,,,,,,4,4,4,3,2,4,3,2,,26,,,,,,,,,,,,,,,,,,,,,,,,,,,,,,,,,,,,,,,,,,,,,,,,,,,,,,,
,,,,,,,,,,,,,,,,,,,,,,,,,,,,,,,,,,,,,,,,,,,,,,,,,,,,,,,,,,,,,,,,,,,,,,,,,,
,,,,,,,,,sum correct,24,,,,,,,,,,,,,,,,,,,,,,,,,,,,,,,,,,,,,,,,,,,,,,,,,,,,,,,,,,,,,,,,
,,,,,,,,,sum not 4,26,,,,,,,,,,,,,,,,,,,,,,,,,,,,,,,,,,,,,,,,,,,,,,,,,,,,,,,,,,,,,,,,
