imageLearning,thisN,thisTrialN,thisRepN,faceTesting,oldnew,race,isFamous,testkeys.keys,testkeys.rt,testkeys.duration,faceAsking,,options,correctOption,familiarnessKeys.keys,familiarnessKeys.rt,familiarnessKeys.duration,learningLoop.thisRepN,learningLoop.thisTrialN,learningLoop.thisN,learningLoop.thisIndex,testingLoop.thisRepN,testingLoop.thisTrialN,testingLoop.thisN,testingLoop.thisIndex,familiarnessLoop.thisRepN,familiarnessLoop.thisTrialN,familiarnessLoop.thisN,familiarnessLoop.thisIndex,thisRow.t,notes,haskama_2.started,haskama.started,key_resp.started,haskama_2.stopped,Blank500.started,image.started,image.stopped,Blank500.stopped,insLearning.started,insLearning_img.started,key_resp_2.started,insLearning.stopped,learningPic.started,facestudypic.started,learningPic.stopped,facestudypic.stopped,insTest.started,insTest_img.started,key_resp_4.started,insTest.stopped,orientation,testingPic.started,facetestpic.started,testkeys.started,testingPic.stopped,testingLoop.testkeys.keys,testingLoop.testkeys.rt,testingLoop.testkeys.duration,insFamiliarness.started,insFamiliarness_img.started,key_resp_5.started,insFamiliarness.stopped,familiarnessPic.started,familiarnessPic_img.started,familiarnessKeys.started,text.started,familiarnessPic.stopped,familiarnessLoop.familiarnessKeys.keys,familiarnessLoop.familiarnessKeys.rt,familiarnessLoop.familiarnessKeys.duration,thankYou.started,text_2.started,text_2.stopped,thankYou.stopped,participant,session,age,"female=""1"""," male=""2""",date,expName,psychopyVersion,frameRate,expStart
,,,,,,,,,,,,,,,,,,,,,,,,,,,,,,,,0.0024387,0.023620099993422627,0.023620099993422627,21.68529210006818,,,,,,,,,,,,,,,,,,,,,,,,,,,,,,,,,,,,,,,,,575642,002,30,1,2025-06-09_12h52.35.075,מחקר פסיכולוגי,2024.2.4,120.16111195875001,2025-06-09 12h53.10.409124 +0300,
,,,,,,,,,,,,,,,,,,,,,,,,,,,,,,,,,,,,21.68542700004764,21.688504499965347,22.189463400049135,22.179598800023086,,,,,,,,,,,,,,,,,,,,,,,,,,,,,,,,,,,,,575642,002,30,1,2025-06-09_12h52.35.075,מחקר פסיכולוגי,2024.2.4,120.16111195875001,2025-06-09 12h53.10.409124 +0300,
,,,,,,,,,,,,,,,,,,,,,,,,,,,,,,,,,,,,,,,,22.179757000063546,22.189463400049135,22.189463400049135,27.181915399967693,,,,,,,,,,,,,,,,,,,,,,,,,,,,,,,,,575642,002,30,1,2025-06-09_12h52.35.075,מחקר פסיכולוגי,2024.2.4,120.16111195875001,2025-06-09 12h53.10.409124 +0300,
images2/image56.png,31,31,0,,,,,,,,,,,,,,,0,31,31,23,,,,,,,,,104.69423879997339,,,,,,106.68505239998922,106.69224000000395,107.1858108000597,107.17759730003309,,,,,104.6901662000455,104.69423879997339,106.68493129999842,104.16770940006245,107.17773170000874,107.1858108000597,107.1858108000597,119.53746690007392,,,,,,,,,,,,,,,,,,,,,,,,,575642,002,30,1,2025-06-09_12h52.35.075,מחקר פסיכולוגי,2024.2.4,120.16111195875001,2025-06-09 12h53.10.409124 +0300,
,,,,,,,,,,,,,,,,,,,,,,,,,,,,,,,,,,,,119.53760030004196,119.54179909999948,120.07726100005675,120.0266346000135,,,,,,,,,,,,,,,,,,,,,,,,,,,,,,,,,,,,,575642,002,30,1,2025-06-09_12h52.35.075,מחקר פסיכולוגי,2024.2.4,120.16111195875001,2025-06-09 12h53.10.409124 +0300,
,0,0,0,images2/image25.png,new,caucasian,unknown,right,9.399404999916442,None,,,,,,,,,,,,0,0,0,24,,,,,120.07726100005675,,,,,,129.48612240003422,129.4916584000457,130.00454380002338,129.97560890007298,,,,,,,,,,,,,normal,120.07037940004375,120.07726100005675,120.07726100005675,129.4860050000716,right,9.399404999916442,None,,,,,,,,,,,,,,,,,575642,002,30,1,2025-06-09_12h52.35.075,מחקר פסיכולוגי,2024.2.4,120.16111195875001,2025-06-09 12h53.10.409124 +0300,
,1,1,0,images2/image43.png,old,caucasian,famous,right,2.5823009,None,,,,,,,,,,,,0,1,1,42,,,,,130.00454380002338,,,,,,132.59536659996957,132.59990839997772,133.1452003000304,133.0845449999906,,,,,,,,,,,,,normal,130.00108860002365,130.00454380002338,130.00454380002338,132.5952448999742,right,2.5823009,None,,,,,,,,,,,,,,,,,575642,002,30,1,2025-06-09_12h52.35.075,מחקר פסיכולוגי,2024.2.4,120.16111195875001,2025-06-09 12h53.10.409124 +0300,
,2,2,0,images2/image62.png,old,caucasian,unknown,right,2.0249432999407873,None,,,,,,,,,,,,0,2,2,61,,,,,133.1452003000304,,,,,,135.18051940004807,135.1843513000058,135.69120010000188,135.67613190005068,,,,,,,,,,,,,normal,133.13886020006612,133.1452003000304,133.1452003000304,135.18041280005127,right,2.0249432999407873,None,,,,,,,,,,,,,,,,,575642,002,30,1,2025-06-09_12h52.35.075,מחקר פסיכולוגי,2024.2.4,120.16111195875001,2025-06-09 12h53.10.409124 +0300,
,3,3,0,images2/image6.png,new,afrikan,famous,left,2.974167399923317,None,,,,,,,,,,,,0,3,3,5,,,,,135.69120010000188,,,,,,138.6704603000544,138.67471290007234,139.17668150004465,139.15963949996512,,,,,,,,,,,,,normal,135.6858708000509,135.69120010000188,135.69120010000188,138.67033019999508,left,2.974167399923317,None,,,,,,,,,,,,,,,,,575642,002,30,1,2025-06-09_12h52.35.075,מחקר פסיכולוגי,2024.2.4,120.16111195875001,2025-06-09 12h53.10.409124 +0300,
,4,4,0,images2/image45.png,old,caucasian,famous,right,1.6098169999895617,None,,,,,,,,,,,,0,4,4,44,,,,,139.17668150004465,,,,,,140.79451679997146,140.79948669997975,141.29501080000773,141.2846947000362,,,,,,,,,,,,,flipped,139.1727697000606,139.17668150004465,139.17668150004465,140.79440170002636,right,1.6098169999895617,None,,,,,,,,,,,,,,,,,575642,002,30,1,2025-06-09_12h52.35.075,מחקר פסיכולוגי,2024.2.4,120.16111195875001,2025-06-09 12h53.10.409124 +0300,
,5,5,0,images2/image48.png,old,caucasian,famous,right,1.5334639000939205,None,,,,,,,,,,,,0,5,5,47,,,,,141.29501080000773,,,,,,142.83675000001676,142.8413916999707,143.3346923000645,143.32563870004378,,,,,,,,,,,,,normal,141.2913874000078,141.29501080000773,141.29501080000773,142.8366062999703,right,1.5334639000939205,None,,,,,,,,,,,,,,,,,575642,002,30,1,2025-06-09_12h52.35.075,מחקר פסיכולוגי,2024.2.4,120.16111195875001,2025-06-09 12h53.10.409124 +0300,
,6,6,0,images2/image12.png,new,caucasian,famous,left,2.2928703000070527,None,,,,,,,,,,,,0,6,6,11,,,,,143.3346923000645,,,,,,145.63582680001855,145.6409757999936,146.14066470006946,146.12572410004213,,,,,,,,,,,,,normal,143.33118930005003,143.3346923000645,143.3346923000645,145.6357087000506,left,2.2928703000070527,None,,,,,,,,,,,,,,,,,575642,002,30,1,2025-06-09_12h52.35.075,מחקר פסיכולוגי,2024.2.4,120.16111195875001,2025-06-09 12h53.10.409124 +0300,
,7,7,0,images2/image63.png,old,caucasian,unknown,right,2.260635199956596,None,,,,,,,,,,,,0,7,7,62,,,,,146.14066470006946,,,,,,148.40957380004693,148.41586459998507,148.91253930004314,148.90068590000737,,,,,,,,,,,,,flipped,146.13673729996663,146.14066470006946,146.14066470006946,148.40949970006477,right,2.260635199956596,None,,,,,,,,,,,,,,,,,575642,002,30,1,2025-06-09_12h52.35.075,מחקר פסיכולוגי,2024.2.4,120.16111195875001,2025-06-09 12h53.10.409124 +0300,
,8,8,0,images2/image32.png,new,caucasian,unknown,left,1.991256000008434,None,,,,,,,,,,,,0,8,8,31,,,,,148.91253930004314,,,,,,150.91107610007748,150.91576770006213,151.41418730001897,151.40130689996295,,,,,,,,,,,,,normal,148.9089633000549,148.91253930004314,148.91253930004314,150.91092070005834,left,1.991256000008434,None,,,,,,,,,,,,,,,,,575642,002,30,1,2025-06-09_12h52.35.075,מחקר פסיכולוגי,2024.2.4,120.16111195875001,2025-06-09 12h53.10.409124 +0300,
,9,9,0,images2/image50.png,old,afrikan,unknown,right,0.6944959999527782,None,,,,,,,,,,,,0,9,9,49,,,,,151.41418730001897,,,,,,152.11122910003178,152.1160702999914,152.61044000007678,152.6004994000541,,,,,,,,,,,,,normal,151.41101939999498,151.41418730001897,151.41418730001897,152.11109849996865,right,0.6944959999527782,None,,,,,,,,,,,,,,,,,575642,002,30,1,2025-06-09_12h52.35.075,מחקר פסיכולוגי,2024.2.4,120.16111195875001,2025-06-09 12h53.10.409124 +0300,
,10,10,0,images2/image42.png,old,caucasian,famous,right,0.7113946999888867,None,,,,,,,,,,,,0,10,10,41,,,,,152.61044000007678,,,,,,153.32750859996304,153.3326517000096,153.8262231000699,153.8172387999948,,,,,,,,,,,,,normal,152.60701569996309,152.61044000007678,152.61044000007678,153.32738590007648,right,0.7113946999888867,None,,,,,,,,,,,,,,,,,575642,002,30,1,2025-06-09_12h52.35.075,מחקר פסיכולוגי,2024.2.4,120.16111195875001,2025-06-09 12h53.10.409124 +0300,
,11,11,0,images2/image47.png,old,caucasian,famous,right,0.8738078000023961,None,,,,,,,,,,,,0,11,11,46,,,,,153.8262231000699,,,,,,154.70317710004747,154.7075774000259,155.20191449997947,155.19218720006756,,,,,,,,,,,,,normal,153.82289219996892,153.8262231000699,153.8262231000699,154.7030536000384,right,0.8738078000023961,None,,,,,,,,,,,,,,,,,575642,002,30,1,2025-06-09_12h52.35.075,מחקר פסיכולוגי,2024.2.4,120.16111195875001,2025-06-09 12h53.10.409124 +0300,
,12,12,0,images2/image5.png,new,afrikan,famous,left,2.208247600006871,None,,,,,,,,,,,,0,12,12,4,,,,,155.20191449997947,,,,,,157.4187949000625,157.42410040006507,157.92040329996962,157.90934630006086,,,,,,,,,,,,,normal,155.19838020007592,155.20191449997947,155.20191449997947,157.41864210006315,left,2.208247600006871,None,,,,,,,,,,,,,,,,,575642,002,30,1,2025-06-09_12h52.35.075,מחקר פסיכולוגי,2024.2.4,120.16111195875001,2025-06-09 12h53.10.409124 +0300,
,13,13,0,images2/image39.png,old,afrikan,famous,right,1.0889057000167668,None,,,,,,,,,,,,0,13,13,38,,,,,157.92040329996962,,,,,,159.0184497999726,159.0239938,159.52111790003255,159.50890750007238,,,,,,,,,,,,,normal,157.91678029997274,157.92040329996962,157.92040329996962,159.01833210000768,right,1.0889057000167668,None,,,,,,,,,,,,,,,,,575642,002,30,1,2025-06-09_12h52.35.075,מחקר פסיכולוגי,2024.2.4,120.16111195875001,2025-06-09 12h53.10.409124 +0300,
,14,14,0,images2/image3.png,new,afrikan,famous,left,1.9673708999762312,None,,,,,,,,,,,,0,14,14,2,,,,,159.52111790003255,,,,,,161.49426760000642,161.49897860002238,161.9936423000181,161.98323710006662,,,,,,,,,,,,,flipped,159.51782609999646,159.52111790003255,159.52111790003255,161.4941445000004,left,1.9673708999762312,None,,,,,,,,,,,,,,,,,575642,002,30,1,2025-06-09_12h52.35.075,מחקר פסיכולוגי,2024.2.4,120.16111195875001,2025-06-09 12h53.10.409124 +0300,
,15,15,0,images2/image57.png,old,caucasian,unknown,right,3.497449899907224,None,,,,,,,,,,,,0,15,15,56,,,,,161.9936423000181,,,,,,165.49394119996578,165.4989232000662,166.01206810004078,165.9828598999884,,,,,,,,,,,,,flipped,161.98986199998762,161.9936423000181,161.9936423000181,165.4938371,right,3.497449899907224,None,,,,,,,,,,,,,,,,,575642,002,30,1,2025-06-09_12h52.35.075,מחקר פסיכולוגי,2024.2.4,120.16111195875001,2025-06-09 12h53.10.409124 +0300,
,16,16,0,images2/image28.png,new,caucasian,unknown,left,1.5180292000295594,None,,,,,,,,,,,,0,16,16,27,,,,,166.01206810004078,,,,,,167.53455750003923,167.54039710003417,168.03901090007275,168.0245178999612,,,,,,,,,,,,,flipped,166.00798590003978,166.01206810004078,166.01206810004078,167.53445809998084,left,1.5180292000295594,None,,,,,,,,,,,,,,,,,575642,002,30,1,2025-06-09_12h52.35.075,מחקר פסיכולוגי,2024.2.4,120.16111195875001,2025-06-09 12h53.10.409124 +0300,
,17,17,0,images2/image22.png,new,afrikan,unknown,right,4.786634700023569,None,,,,,,,,,,,,0,17,17,21,,,,,168.03901090007275,,,,,,172.83458430005703,172.8404691000469,173.3397467000177,173.32498030003626,,,,,,,,,,,,,flipped,168.0340109000681,168.03901090007275,168.03901090007275,172.8344576000236,right,4.786634700023569,None,,,,,,,,,,,,,,,,,575642,002,30,1,2025-06-09_12h52.35.075,מחקר פסיכולוגי,2024.2.4,120.16111195875001,2025-06-09 12h53.10.409124 +0300,
,18,18,0,images2/image13.png,new,caucasian,famous,left,4.014997999998741,None,,,,,,,,,,,,0,18,18,12,,,,,173.3397467000177,,,,,,177.36017850006465,177.36514160002116,177.88589799997862,177.85007459996268,,,,,,,,,,,,,flipped,173.33598259999417,173.3397467000177,173.3397467000177,177.36005070002284,left,4.014997999998741,None,,,,,,,,,,,,,,,,,575642,002,30,1,2025-06-09_12h52.35.075,מחקר פסיכולוגי,2024.2.4,120.16111195875001,2025-06-09 12h53.10.409124 +0300,
,19,19,0,images2/image59.png,old,caucasian,unknown,right,1.1279984000138938,None,,,,,,,,,,,,0,19,19,58,,,,,177.88589799997862,,,,,,179.01900249999017,179.0236600000644,179.5271738000447,179.50822820002213,,,,,,,,,,,,,normal,177.8814360999968,177.88589799997862,177.88589799997862,179.0188660999993,right,1.1279984000138938,None,,,,,,,,,,,,,,,,,575642,002,30,1,2025-06-09_12h52.35.075,מחקר פסיכולוגי,2024.2.4,120.16111195875001,2025-06-09 12h53.10.409124 +0300,
,20,20,0,images2/image27.png,new,caucasian,unknown,right,2.1063457999844104,None,,,,,,,,,,,,0,20,20,26,,,,,179.5271738000447,,,,,,181.64248160005081,181.6484061999945,182.14427529997192,182.1326824000571,,,,,,,,,,,,,flipped,179.5218549000565,179.5271738000447,179.5271738000447,181.64236270007677,right,2.1063457999844104,None,,,,,,,,,,,,,,,,,575642,002,30,1,2025-06-09_12h52.35.075,מחקר פסיכולוגי,2024.2.4,120.16111195875001,2025-06-09 12h53.10.409124 +0300,
,21,21,0,images2/image40.png,old,afrikan,famous,left,1.5794698999961838,None,,,,,,,,,,,,0,21,21,39,,,,,182.14427529997192,,,,,,183.7262497000629,183.73145429999568,184.22676109999884,184.21659009996802,,,,,,,,,,,,,flipped,182.1405117000686,182.14427529997192,182.14427529997192,183.72614120005164,left,1.5794698999961838,None,,,,,,,,,,,,,,,,,575642,002,30,1,2025-06-09_12h52.35.075,מחקר פסיכולוגי,2024.2.4,120.16111195875001,2025-06-09 12h53.10.409124 +0300,
,22,22,0,images2/image44.png,old,caucasian,famous,right,0.9774581999517977,None,,,,,,,,,,,,0,22,22,43,,,,,184.22676109999884,,,,,,185.20970989996567,185.21491199999582,185.7125112999929,185.6996855000034,,,,,,,,,,,,,flipped,184.22340160002932,184.22676109999884,184.22676109999884,185.2095841000555,right,0.9774581999517977,None,,,,,,,,,,,,,,,,,575642,002,30,1,2025-06-09_12h52.35.075,מחקר פסיכולוגי,2024.2.4,120.16111195875001,2025-06-09 12h53.10.409124 +0300,
,23,23,0,images2/image31.png,new,caucasian,unknown,right,1.309192799963057,None,,,,,,,,,,,,0,23,23,30,,,,,185.7125112999929,,,,,,187.02673589996994,187.03162270004395,187.5274115,187.51616700005252,,,,,,,,,,,,,flipped,185.70904410001822,185.7125112999929,185.7125112999929,187.02659050002694,right,1.309192799963057,None,,,,,,,,,,,,,,,,,575642,002,30,1,2025-06-09_12h52.35.075,מחקר פסיכולוגי,2024.2.4,120.16111195875001,2025-06-09 12h53.10.409124 +0300,
,24,24,0,images2/image37.png,old,afrikan,famous,right,0.8599792999448255,None,,,,,,,,,,,,0,24,24,36,,,,,187.5274115,,,,,,188.39305239997339,188.39957170002162,188.90409059997182,188.89156660006847,,,,,,,,,,,,,normal,187.52302730001975,187.5274115,187.5274115,188.39289490005467,right,0.8599792999448255,None,,,,,,,,,,,,,,,,,575642,002,30,1,2025-06-09_12h52.35.075,מחקר פסיכולוגי,2024.2.4,120.16111195875001,2025-06-09 12h53.10.409124 +0300,
,25,25,0,images2/image15.png,new,caucasian,famous,right,1.7728576000081375,None,,,,,,,,,,,,0,25,25,14,,,,,188.90409059997182,,,,,,190.68500220007263,190.68988980003633,191.20063490001485,191.17525410000235,,,,,,,,,,,,,flipped,188.9006518999813,188.90409059997182,188.90409059997182,190.68488189997151,right,1.7728576000081375,None,,,,,,,,,,,,,,,,,575642,002,30,1,2025-06-09_12h52.35.075,מחקר פסיכולוגי,2024.2.4,120.16111195875001,2025-06-09 12h53.10.409124 +0300,
,26,26,0,images2/image1.png,new,afrikan,famous,left,1.4938312999438494,None,,,,,,,,,,,,0,26,26,0,,,,,191.20063490001485,,,,,,192.7007626000559,192.7061596000567,193.2008710000664,193.19091240002308,,,,,,,,,,,,,normal,191.19451940001454,191.20063490001485,191.20063490001485,192.70062140002847,left,1.4938312999438494,None,,,,,,,,,,,,,,,,,575642,002,30,1,2025-06-09_12h52.35.075,מחקר פסיכולוגי,2024.2.4,120.16111195875001,2025-06-09 12h53.10.409124 +0300,
,27,27,0,images2/image64.png,old,caucasian,unknown,right,1.060599899967201,None,,,,,,,,,,,,0,27,27,63,,,,,193.2008710000664,,,,,,194.26742170006037,194.27279710001312,194.76885640004184,194.75730529997963,,,,,,,,,,,,,normal,193.19739390001632,193.2008710000664,193.2008710000664,194.2672708000755,right,1.060599899967201,None,,,,,,,,,,,,,,,,,575642,002,30,1,2025-06-09_12h52.35.075,מחקר פסיכולוגי,2024.2.4,120.16111195875001,2025-06-09 12h53.10.409124 +0300,
,28,28,0,images2/image10.png,new,caucasian,famous,left,1.7133969001006335,None,,,,,,,,,,,,0,28,28,9,,,,,194.76885640004184,,,,,,196.48535630002152,196.48958880000282,196.9859090000391,196.97458689997438,,,,,,,,,,,,,flipped,194.76425510004628,194.76885640004184,194.76885640004184,196.48524309997447,left,1.7133969001006335,None,,,,,,,,,,,,,,,,,575642,002,30,1,2025-06-09_12h52.35.075,מחקר פסיכולוגי,2024.2.4,120.16111195875001,2025-06-09 12h53.10.409124 +0300,
,29,29,0,images2/image21.png,new,afrikan,unknown,right,1.312062400043942,None,,,,,,,,,,,,0,29,29,20,,,,,196.9859090000391,,,,,,198.30165520007722,198.3061791000655,198.8035707999952,198.79130420007277,,,,,,,,,,,,,normal,196.98263650003355,196.9859090000391,196.9859090000391,198.30149159999564,right,1.312062400043942,None,,,,,,,,,,,,,,,,,575642,002,30,1,2025-06-09_12h52.35.075,מחקר פסיכולוגי,2024.2.4,120.16111195875001,2025-06-09 12h53.10.409124 +0300,
,30,30,0,images2/image34.png,old,afrikan,famous,right,1.1398943000240251,None,,,,,,,,,,,,0,30,30,33,,,,,198.8035707999952,,,,,,199.95118400000501,199.95624349999707,200.45297410001513,200.44123770005535,,,,,,,,,,,,,flipped,198.8002092000097,198.8035707999952,198.8035707999952,199.95106670004316,right,1.1398943000240251,None,,,,,,,,,,,,,,,,,575642,002,30,1,2025-06-09_12h52.35.075,מחקר פסיכולוגי,2024.2.4,120.16111195875001,2025-06-09 12h53.10.409124 +0300,
,31,31,0,images2/image2.png,new,afrikan,famous,right,2.9532105999533087,None,,,,,,,,,,,,0,31,31,1,,,,,200.45297410001513,,,,,,203.40934859996196,203.41435610002372,203.91260939999484,203.89961349999066,,,,,,,,,,,,,flipped,200.44892080000136,200.45297410001513,200.45297410001513,203.4092439999804,right,2.9532105999533087,None,,,,,,,,,,,,,,,,,575642,002,30,1,2025-06-09_12h52.35.075,מחקר פסיכולוגי,2024.2.4,120.16111195875001,2025-06-09 12h53.10.409124 +0300,
,32,32,0,images2/image30.png,new,caucasian,unknown,left,1.4871705999830738,None,,,,,,,,,,,,0,32,32,29,,,,,203.91260939999484,,,,,,205.4086445000721,205.4143000000622,205.91094450000674,205.89928879996296,,,,,,,,,,,,,normal,203.90890649997164,203.91260939999484,203.91260939999484,205.40852080006152,left,1.4871705999830738,None,,,,,,,,,,,,,,,,,575642,002,30,1,2025-06-09_12h52.35.075,מחקר פסיכולוגי,2024.2.4,120.16111195875001,2025-06-09 12h53.10.409124 +0300,
,33,33,0,images2/image33.png,old,afrikan,famous,right,1.1533778000157326,None,,,,,,,,,,,,0,33,33,32,,,,,205.91094450000674,,,,,,207.06680450006388,207.07253540004604,207.56885480007622,207.55722780001815,,,,,,,,,,,,,normal,205.9077744,205.91094450000674,205.91094450000674,207.0667029999895,right,1.1533778000157326,None,,,,,,,,,,,,,,,,,575642,002,30,1,2025-06-09_12h52.35.075,מחקר פסיכולוגי,2024.2.4,120.16111195875001,2025-06-09 12h53.10.409124 +0300,
,34,34,0,images2/image36.png,old,afrikan,famous,right,1.8402401999337599,None,,,,,,,,,,,,0,34,34,35,,,,,207.56885480007622,,,,,,209.41681600001175,209.42256510001607,209.9278812999837,209.90693759999704,,,,,,,,,,,,,flipped,207.5651362000499,207.56885480007622,207.56885480007622,209.4167111000279,right,1.8402401999337599,None,,,,,,,,,,,,,,,,,575642,002,30,1,2025-06-09_12h52.35.075,מחקר פסיכולוגי,2024.2.4,120.16111195875001,2025-06-09 12h53.10.409124 +0300,
,35,35,0,images2/image60.png,old,caucasian,unknown,right,1.4769771,None,,,,,,,,,,,,0,35,35,59,,,,,209.9278812999837,,,,,,211.40953699999955,211.4140135999769,211.91141269996297,211.8984763000626,,,,,,,,,,,,,normal,209.92422110005282,209.9278812999837,209.9278812999837,211.40941089997068,right,1.4769771,None,,,,,,,,,,,,,,,,,575642,002,30,1,2025-06-09_12h52.35.075,מחקר פסיכולוגי,2024.2.4,120.16111195875001,2025-06-09 12h53.10.409124 +0300,
,36,36,0,images2/image23.png,new,afrikan,unknown,right,1.2056246999418363,None,,,,,,,,,,,,0,36,36,22,,,,,211.91141269996297,,,,,,213.1254031000426,213.1307567000622,213.62487050006166,213.6154566,,,,,,,,,,,,,normal,211.90795000002254,211.91141269996297,211.91141269996297,213.1252823000541,right,1.2056246999418363,None,,,,,,,,,,,,,,,,,575642,002,30,1,2025-06-09_12h52.35.075,מחקר פסיכולוגי,2024.2.4,120.16111195875001,2025-06-09 12h53.10.409124 +0300,
,37,37,0,images2/image11.png,new,caucasian,famous,left,1.3530286999884993,None,,,,,,,,,,,,0,37,37,10,,,,,213.62487050006166,,,,,,214.98390450002626,214.98909659998026,215.48552470002323,215.47392130002845,,,,,,,,,,,,,normal,213.62096199998632,213.62487050006166,213.62487050006166,214.98378210002556,left,1.3530286999884993,None,,,,,,,,,,,,,,,,,575642,002,30,1,2025-06-09_12h52.35.075,מחקר פסיכולוגי,2024.2.4,120.16111195875001,2025-06-09 12h53.10.409124 +0300,
,38,38,0,images2/image55.png,old,afrikan,unknown,right,0.8814348999876529,None,,,,,,,,,,,,0,38,38,54,,,,,215.48552470002323,,,,,,216.3753076000139,216.38064069999382,216.88004419999197,216.8656186000444,,,,,,,,,,,,,normal,215.48233729996718,215.48552470002323,215.48552470002323,216.37518850003835,right,0.8814348999876529,None,,,,,,,,,,,,,,,,,575642,002,30,1,2025-06-09_12h52.35.075,מחקר פסיכולוגי,2024.2.4,120.16111195875001,2025-06-09 12h53.10.409124 +0300,
,39,39,0,images2/image41.png,old,caucasian,famous,right,1.1082672999473289,None,,,,,,,,,,,,0,39,39,40,,,,,216.88004419999197,,,,,,217.99162820004858,217.9972544000484,218.4944599000737,218.48234370001592,,,,,,,,,,,,,flipped,216.8766406000359,216.88004419999197,216.88004419999197,217.9915137999924,right,1.1082672999473289,None,,,,,,,,,,,,,,,,,575642,002,30,1,2025-06-09_12h52.35.075,מחקר פסיכולוגי,2024.2.4,120.16111195875001,2025-06-09 12h53.10.409124 +0300,
,40,40,0,images2/image16.png,new,caucasian,famous,right,0.8815544999670237,None,,,,,,,,,,,,0,40,40,15,,,,,218.4944599000737,,,,,,219.38328159996308,219.38902310002595,219.88375050004106,219.8737617000006,,,,,,,,,,,,,normal,218.49071759998333,218.4944599000737,218.4944599000737,219.38316430000123,right,0.8815544999670237,None,,,,,,,,,,,,,,,,,575642,002,30,1,2025-06-09_12h52.35.075,מחקר פסיכולוגי,2024.2.4,120.16111195875001,2025-06-09 12h53.10.409124 +0300,
,41,41,0,images2/image9.png,new,caucasian,famous,left,1.151099400012754,None,,,,,,,,,,,,0,41,41,8,,,,,219.88375050004106,,,,,,221.0422601000173,221.04720320005435,221.54176890000235,221.53090340003837,,,,,,,,,,,,,normal,219.88007070007734,219.88375050004106,219.88375050004106,221.04211480007507,left,1.151099400012754,None,,,,,,,,,,,,,,,,,575642,002,30,1,2025-06-09_12h52.35.075,מחקר פסיכולוגי,2024.2.4,120.16111195875001,2025-06-09 12h53.10.409124 +0300,
,42,42,0,images2/image19.png,new,afrikan,unknown,right,0.7713952,None,,,,,,,,,,,,0,42,42,18,,,,,221.54176890000235,,,,,,222.31783760001417,222.32199490000494,222.81750780006405,222.80612480000127,,,,,,,,,,,,,normal,221.53812290006317,221.54176890000235,221.54176890000235,222.3176717000315,right,0.7713952,None,,,,,,,,,,,,,,,,,575642,002,30,1,2025-06-09_12h52.35.075,מחקר פסיכולוגי,2024.2.4,120.16111195875001,2025-06-09 12h53.10.409124 +0300,
,43,43,0,images2/image35.png,old,afrikan,famous,right,0.8758751000277698,None,,,,,,,,,,,,0,43,43,34,,,,,222.81750780006405,,,,,,223.7010350000346,223.7055673999712,224.2007458000444,224.18914120004047,,,,,,,,,,,,,normal,222.81403650005814,222.81750780006405,222.81750780006405,223.70087870000862,right,0.8758751000277698,None,,,,,,,,,,,,,,,,,575642,002,30,1,2025-06-09_12h52.35.075,מחקר פסיכולוגי,2024.2.4,120.16111195875001,2025-06-09 12h53.10.409124 +0300,
,44,44,0,images2/image20.png,new,afrikan,unknown,right,1.5379135999828577,None,,,,,,,,,,,,0,44,44,19,,,,,224.2007458000444,,,,,,225.74174890003633,225.74719580006786,226.24105279997457,226.2307509999955,,,,,,,,,,,,,normal,224.19731389998924,224.2007458000444,224.2007458000444,225.74163389997557,right,1.5379135999828577,None,,,,,,,,,,,,,,,,,575642,002,30,1,2025-06-09_12h52.35.075,מחקר פסיכולוגי,2024.2.4,120.16111195875001,2025-06-09 12h53.10.409124 +0300,
,45,45,0,images2/image38.png,old,afrikan,famous,right,1.6198225000407547,None,,,,,,,,,,,,0,45,45,37,,,,,226.24105279997457,,,,,,227.8656310000224,227.87186519999523,228.36752440000419,228.35641959996428,,,,,,,,,,,,,flipped,226.2374241000507,226.24105279997457,226.24105279997457,227.86555970006157,right,1.6198225000407547,None,,,,,,,,,,,,,,,,,575642,002,30,1,2025-06-09_12h52.35.075,מחקר פסיכולוגי,2024.2.4,120.16111195875001,2025-06-09 12h53.10.409124 +0300,
,46,46,0,images2/image29.png,new,caucasian,unknown,right,1.134012500056997,None,,,,,,,,,,,,0,46,46,28,,,,,228.36752440000419,,,,,,229.50813950004522,229.51365910004824,230.03449790005106,229.99865920003504,,,,,,,,,,,,,flipped,228.36417900002562,228.36752440000419,228.36752440000419,229.50801550003234,right,1.134012500056997,None,,,,,,,,,,,,,,,,,575642,002,30,1,2025-06-09_12h52.35.075,מחקר פסיכולוגי,2024.2.4,120.16111195875001,2025-06-09 12h53.10.409124 +0300,
,47,47,0,images2/image56.png,old,afrikan,unknown,right,0.8031308,None,,,,,,,,,,,,0,47,47,55,,,,,230.03449790005106,,,,,,230.84100270003546,230.8467276999727,231.3473687999649,231.33188030007295,,,,,,,,,,,,,normal,230.03010289999656,230.03449790005106,230.03449790005106,230.84089770005085,right,0.8031308,None,,,,,,,,,,,,,,,,,575642,002,30,1,2025-06-09_12h52.35.075,מחקר פסיכולוגי,2024.2.4,120.16111195875001,2025-06-09 12h53.10.409124 +0300,
,48,48,0,images2/image14.png,new,caucasian,famous,right,0.8339360000099987,None,,,,,,,,,,,,0,48,48,13,,,,,231.3473687999649,,,,,,232.18443929997738,232.18851830007043,232.68621449999046,232.67284380004276,,,,,,,,,,,,,flipped,231.3423177000368,231.3473687999649,231.3473687999649,232.1843138000695,right,0.8339360000099987,None,,,,,,,,,,,,,,,,,575642,002,30,1,2025-06-09_12h52.35.075,מחקר פסיכולוגי,2024.2.4,120.16111195875001,2025-06-09 12h53.10.409124 +0300,
,49,49,0,images2/image53.png,old,afrikan,unknown,right,1.5166587999556214,None,,,,,,,,,,,,0,49,49,52,,,,,232.68621449999046,,,,,,234.2085244000191,234.21348460006993,234.72014990006573,234.6984708000673,,,,,,,,,,,,,normal,232.6826119000325,232.68621449999046,232.68621449999046,234.20839479996357,right,1.5166587999556214,None,,,,,,,,,,,,,,,,,575642,002,30,1,2025-06-09_12h52.35.075,מחקר פסיכולוגי,2024.2.4,120.16111195875001,2025-06-09 12h53.10.409124 +0300,
,50,50,0,images2/image26.png,new,caucasian,unknown,left,1.5333841999527067,None,,,,,,,,,,,,0,50,50,25,,,,,234.72014990006573,,,,,,236.25815190002322,236.26343200006522,236.75988250004593,236.74818750005215,,,,,,,,,,,,,normal,234.71604480000678,234.72014990006573,234.72014990006573,236.25803570006974,left,1.5333841999527067,None,,,,,,,,,,,,,,,,,575642,002,30,1,2025-06-09_12h52.35.075,מחקר פסיכולוגי,2024.2.4,120.16111195875001,2025-06-09 12h53.10.409124 +0300,
,51,51,0,images2/image24.png,new,afrikan,unknown,left,1.4480639999965206,None,,,,,,,,,,,,0,51,51,23,,,,,236.75988250004593,,,,,,238.2165753999725,238.22166729997844,238.71859060006682,238.70586430002004,,,,,,,,,,,,,flipped,236.7555738000665,236.75988250004593,236.75988250004593,238.2164537999779,left,1.4480639999965206,None,,,,,,,,,,,,,,,,,575642,002,30,1,2025-06-09_12h52.35.075,מחקר פסיכולוגי,2024.2.4,120.16111195875001,2025-06-09 12h53.10.409124 +0300,
,52,52,0,images2/image61.png,old,caucasian,unknown,right,1.0217527999775484,None,,,,,,,,,,,,0,52,52,60,,,,,238.71859060006682,,,,,,239.74959040002432,239.7549919000594,240.2525789999636,240.2397070999723,,,,,,,,,,,,,flipped,238.71501779998653,238.71859060006682,238.71859060006682,239.7494572000578,right,1.0217527999775484,None,,,,,,,,,,,,,,,,,575642,002,30,1,2025-06-09_12h52.35.075,מחקר פסיכולוגי,2024.2.4,120.16111195875001,2025-06-09 12h53.10.409124 +0300,
,53,53,0,images2/image17.png,new,afrikan,unknown,right,1.2900548999896273,None,,,,,,,,,,,,0,53,53,16,,,,,240.2525789999636,,,,,,241.54899649997242,241.5547293999698,242.05573570006527,242.03926370001864,,,,,,,,,,,,,flipped,240.24920479999855,240.2525789999636,240.2525789999636,241.54889079998247,right,1.2900548999896273,None,,,,,,,,,,,,,,,,,575642,002,30,1,2025-06-09_12h52.35.075,מחקר פסיכולוגי,2024.2.4,120.16111195875001,2025-06-09 12h53.10.409124 +0300,
,54,54,0,images2/image18.png,new,afrikan,unknown,left,1.9782804000424221,None,,,,,,,,,,,,0,54,54,17,,,,,242.05573570006527,,,,,,244.04081310005859,244.04646840004716,244.5431130999932,244.53139789996203,,,,,,,,,,,,,flipped,242.05209020001348,242.05573570006527,242.05573570006527,244.04064520006068,left,1.9782804000424221,None,,,,,,,,,,,,,,,,,575642,002,30,1,2025-06-09_12h52.35.075,מחקר פסיכולוגי,2024.2.4,120.16111195875001,2025-06-09 12h53.10.409124 +0300,
,55,55,0,images2/image46.png,old,caucasian,famous,right,1.918500900035724,None,,,,,,,,,,,,0,55,55,45,,,,,244.5431130999932,,,,,,246.46721400006209,246.47145119996276,246.97310439997818,246.95653720002156,,,,,,,,,,,,,flipped,244.53978170000482,244.5431130999932,244.5431130999932,246.46708089997992,right,1.918500900035724,None,,,,,,,,,,,,,,,,,575642,002,30,1,2025-06-09_12h52.35.075,מחקר פסיכולוגי,2024.2.4,120.16111195875001,2025-06-09 12h53.10.409124 +0300,
,56,56,0,images2/image8.png,new,afrikan,famous,right,2.673081299988553,None,,,,,,,,,,,,0,56,56,7,,,,,246.97310439997818,,,,,,249.65004440001212,249.65470519999508,250.1520235000644,250.1395619000541,,,,,,,,,,,,,normal,246.9693208,246.97310439997818,246.97310439997818,249.6499329,right,2.673081299988553,None,,,,,,,,,,,,,,,,,575642,002,30,1,2025-06-09_12h52.35.075,מחקר פסיכולוגי,2024.2.4,120.16111195875001,2025-06-09 12h53.10.409124 +0300,
,57,57,0,images2/image58.png,old,caucasian,unknown,left,1.7949988000327721,None,,,,,,,,,,,,0,57,57,57,,,,,250.1520235000644,,,,,,251.94947900006082,251.95516540005337,252.4499194000382,252.43857310002204,,,,,,,,,,,,,flipped,250.14825239998754,250.1520235000644,250.1520235000644,251.94938090001233,left,1.7949988000327721,None,,,,,,,,,,,,,,,,,575642,002,30,1,2025-06-09_12h52.35.075,מחקר פסיכולוגי,2024.2.4,120.16111195875001,2025-06-09 12h53.10.409124 +0300,
,58,58,0,images2/image54.png,old,afrikan,unknown,right,1.7301409000065178,None,,,,,,,,,,,,0,58,58,53,,,,,252.4499194000382,,,,,,254.18401580001228,254.18769880000036,254.68182940001134,254.67212580004707,,,,,,,,,,,,,flipped,252.44638720003422,252.4499194000382,252.4499194000382,254.1838533000555,right,1.7301409000065178,None,,,,,,,,,,,,,,,,,575642,002,30,1,2025-06-09_12h52.35.075,מחקר פסיכולוגי,2024.2.4,120.16111195875001,2025-06-09 12h53.10.409124 +0300,
,59,59,0,images2/image4.png,new,afrikan,famous,left,1.2698582999873906,None,,,,,,,,,,,,0,59,59,3,,,,,254.68182940001134,,,,,,255.95719730004203,255.96267080004327,256.46710360003635,256.4474661999848,,,,,,,,,,,,,flipped,254.67734439997002,254.68182940001134,254.68182940001134,255.9571019000141,left,1.2698582999873906,None,,,,,,,,,,,,,,,,,575642,002,30,1,2025-06-09_12h52.35.075,מחקר פסיכולוגי,2024.2.4,120.16111195875001,2025-06-09 12h53.10.409124 +0300,
,60,60,0,images2/image7.png,new,afrikan,famous,left,1.2149742000037804,None,,,,,,,,,,,,0,60,60,6,,,,,256.46710360003635,,,,,,257.6905718999915,257.6960551000666,258.1933183000656,258.1808766,,,,,,,,,,,,,flipped,256.46327060007025,256.46710360003635,256.46710360003635,257.69045380002353,left,1.2149742000037804,None,,,,,,,,,,,,,,,,,575642,002,30,1,2025-06-09_12h52.35.075,מחקר פסיכולוגי,2024.2.4,120.16111195875001,2025-06-09 12h53.10.409124 +0300,
,61,61,0,images2/image52.png,old,afrikan,unknown,right,0.7450900999829173,None,,,,,,,,,,,,0,61,61,51,,,,,258.1933183000656,,,,,,258.9417449000757,258.945802,259.44063670001924,259.4309475000482,,,,,,,,,,,,,flipped,258.1895962000126,258.1933183000656,258.1933183000656,258.9416295000119,right,0.7450900999829173,None,,,,,,,,,,,,,,,,,575642,002,30,1,2025-06-09_12h52.35.075,מחקר פסיכולוגי,2024.2.4,120.16111195875001,2025-06-09 12h53.10.409124 +0300,
,62,62,0,images2/image49.png,old,afrikan,unknown,right,1.0575956999091431,None,,,,,,,,,,,,0,62,62,48,,,,,259.44063670001924,,,,,,260.50714150001295,260.5129518000176,261.0098299999954,260.99704679998104,,,,,,,,,,,,,flipped,259.4370801000623,259.44063670001924,259.44063670001924,260.50703019998036,right,1.0575956999091431,None,,,,,,,,,,,,,,,,,575642,002,30,1,2025-06-09_12h52.35.075,מחקר פסיכולוגי,2024.2.4,120.16111195875001,2025-06-09 12h53.10.409124 +0300,
,63,63,0,images2/image51.png,old,afrikan,unknown,right,0.9299979000352323,None,,,,,,,,,,,,0,63,63,50,,,,,261.0098299999954,,,,,,261.9488024000311,261.95425449998584,262.4483393999981,262.4389763000654,,,,,,,,,,,,,flipped,261.00645039998926,261.0098299999954,261.0098299999954,261.94869990006555,right,0.9299979000352323,None,,,,,,,,,,,,,,,,,575642,002,30,1,2025-06-09_12h52.35.075,מחקר פסיכולוגי,2024.2.4,120.16111195875001,2025-06-09 12h53.10.409124 +0300,
,,,,,,,,,,,,,,,,,,,,,,,,,,,,,,,,,,,,,,,,,,,,,,,,,,,,,,,,,,,,262.4392038000515,262.4483393999981,262.4483393999981,273.5832178000128,,,,,,,,,,,,,575642,002,30,1,2025-06-09_12h52.35.075,מחקר פסיכולוגי,2024.2.4,120.16111195875001,2025-06-09 12h53.10.409124 +0300,
,,,,,,,,,,,,,,,,,,,,,,,,,,,,,,,,,,,,273.58331390004605,273.59061030007433,274.1356359999627,274.0798475999618,,,,,,,,,,,,,,,,,,,,,,,,,,,,,,,,,,,,,575642,002,30,1,2025-06-09_12h52.35.075,מחקר פסיכולוגי,2024.2.4,120.16111195875001,2025-06-09 12h53.10.409124 +0300,
,0,0,0,,,,,,,,images2/image33.png,old | afrikan | normal,"האדם בתמונה הוא:
1. זמר 
2. שחקן
3.פוליטיקאי
4. לא מכיר/ה
",2,4,18.47464090003632,None,,,,,,,,,0,0,0,20,274.1356359999627,,,,,,292.6155428000493,292.62007369997445,293.1220057000173,293.1048261000542,,,,,,,,,,,,,,,,,,,,,,,,,274.1302899000002,274.1356359999627,274.1356359999627,274.1356359999627,292.6153541000094,4,18.47464090003632,None,,,,,575642,002,30,1,2025-06-09_12h52.35.075,מחקר פסיכולוגי,2024.2.4,120.16111195875001,2025-06-09 12h53.10.409124 +0300,
,1,1,0,,,,,,,,images2/image36.png,old | afrikan | flipped,"האדם בתמונה הוא:
1. זמר 
2. שחקן
3.פוליטיקאי
4. לא מכיר/ה
",1,1,5.147819700068794,None,,,,,,,,,0,1,1,23,293.1220057000173,,,,,,298.2733448999934,298.27804270002525,298.7784909,298.7627363000065,,,,,,,,,,,,,,,,,,,,,,,,,293.11759869998787,293.1220057000173,293.1220057000173,293.1220057000173,298.27322259999346,1,5.147819700068794,None,,,,,575642,002,30,1,2025-06-09_12h52.35.075,מחקר פסיכולוגי,2024.2.4,120.16111195875001,2025-06-09 12h53.10.409124 +0300,
,2,2,0,,,,,,,,images2/image47.png,old | caucasian | normal,"האדם בתמונה הוא:
1. זמר 
2. שחקן
3. ספורטאי
4. לא מכיר/ה
",1,4,4.450780900078826,None,,,,,,,,,0,2,2,34,298.7784909,,,,,,303.2321733,303.2363443999784,303.7366243000142,303.7206335000228,,,,,,,,,,,,,,,,,,,,,,,,,298.7751152999699,298.7784909,298.7784909,298.7784909,303.2320459000766,4,4.450780900078826,None,,,,,575642,002,30,1,2025-06-09_12h52.35.075,מחקר פסיכולוגי,2024.2.4,120.16111195875001,2025-06-09 12h53.10.409124 +0300,
,3,3,0,,,,,,,,images2/image46.png,old | caucasian | flipped,"האדם בתמונה הוא:
1. זמר 
2. שחקן
3. ספורטאי
4. לא מכיר/ה
",1,3,4.3061025000642985,None,,,,,,,,,0,3,3,33,303.7366243000142,,,,,,308.0474849999882,308.05266799998935,308.5557760000229,308.5376837999793,,,,,,,,,,,,,,,,,,,,,,,,,303.7328248000704,303.7366243000142,303.7366243000142,303.7366243000142,308.04734499996994,3,4.3061025000642985,None,,,,,575642,002,30,1,2025-06-09_12h52.35.075,מחקר פסיכולוגי,2024.2.4,120.16111195875001,2025-06-09 12h53.10.409124 +0300,
,4,4,0,,,,,,,,images2/image34.png,old | afrikan | flipped,"האדם בתמונה הוא:
1. זמר 
2. שחקן
3. פוליטיקאי
4. לא מכיר/ה
",2,2,6.157602999941446,None,,,,,,,,,0,4,4,21,308.5557760000229,,,,,,314.7221278999932,314.7274264000589,315.24355959997047,315.2127844999777,,,,,,,,,,,,,,,,,,,,,,,,,308.55192240001634,308.5557760000229,308.5557760000229,308.5557760000229,314.7220015999628,2,6.157602999941446,None,,,,,575642,002,30,1,2025-06-09_12h52.35.075,מחקר פסיכולוגי,2024.2.4,120.16111195875001,2025-06-09 12h53.10.409124 +0300,
,5,5,0,,,,,,,,images2/image45.png,old | caucasian | flipped,"האדם בתמונה הוא:
1. זמר 
2. שחקן
3. ספורטאי
4. לא מכיר/ה
",2,2,2.8472281999420375,None,,,,,,,,,0,5,5,32,315.24355959997047,,,,,,318.09735809999984,318.1026902999729,318.6060284000123,318.5873334000353,,,,,,,,,,,,,,,,,,,,,,,,,315.2375633000629,315.24355959997047,315.24355959997047,315.24355959997047,318.0972339999862,2,2.8472281999420375,None,,,,,575642,002,30,1,2025-06-09_12h52.35.075,מחקר פסיכולוגי,2024.2.4,120.16111195875001,2025-06-09 12h53.10.409124 +0300,
,6,6,0,,,,,,,,images2/image9.png,new | caucasian | normal,"האדם בתמונה הוא:
1. זמר 
2. שחקן
3. ספורטאי
4. לא מכיר/ה
",2,2,1.4903053999878466,None,,,,,,,,,0,6,6,8,318.6060284000123,,,,,,320.1050569000654,320.1107864000369,320.61321900004987,320.5957561,,,,,,,,,,,,,,,,,,,,,,,,,318.6020934,318.6060284000123,318.6060284000123,318.6060284000123,320.1049691999797,2,1.4903053999878466,None,,,,,575642,002,30,1,2025-06-09_12h52.35.075,מחקר פסיכולוגי,2024.2.4,120.16111195875001,2025-06-09 12h53.10.409124 +0300,
,7,7,0,,,,,,,,images2/image16.png,new | caucasian | normal,"האדם בתמונה הוא:
1. זמר 
2. שחקן
3. ספורטאי
4. לא מכיר/ה
",2,3,7.5671375000383705,None,,,,,,,,,0,7,7,15,320.61321900004987,,,,,,328.1881212000735,328.1938378000632,328.6937812999822,328.67871400003787,,,,,,,,,,,,,,,,,,,,,,,,,320.6093059000559,320.61321900004987,320.61321900004987,320.61321900004987,328.18800700001884,3,7.5671375000383705,None,,,,,575642,002,30,1,2025-06-09_12h52.35.075,מחקר פסיכולוגי,2024.2.4,120.16111195875001,2025-06-09 12h53.10.409124 +0300,
,8,8,0,,,,,,,,images2/image43.png,old | caucasian | normal,"האדם בתמונה הוא:
1. זמר 
2. שחקן
3. ספורטאי
4. לא מכיר/ה
",1,1,5.417307800031267,None,,,,,,,,,0,8,8,30,328.6937812999822,,,,,,334.1137387,334.1183920999756,334.61875030002557,334.6031293,,,,,,,,,,,,,,,,,,,,,,,,,328.6902101000305,328.6937812999822,328.6937812999822,328.6937812999822,334.11362029996235,1,5.417307800031267,None,,,,,575642,002,30,1,2025-06-09_12h52.35.075,מחקר פסיכולוגי,2024.2.4,120.16111195875001,2025-06-09 12h53.10.409124 +0300,
,9,9,0,,,,,,,,images2/image40.png,old | afrikan | flipped,"האדם בתמונה הוא:
1. זמר 
2. שחקן
3. עתונאי
4. לא מכיר/ה
",1,3,5.365186499897391,None,,,,,,,,,0,9,9,27,334.61875030002557,,,,,,339.98842730000615,339.99348750000354,340.4978992000688,340.4783610000741,,,,,,,,,,,,,,,,,,,,,,,,,334.61507719999645,334.61875030002557,334.61875030002557,334.61875030002557,339.98831599997357,3,5.365186499897391,None,,,,,575642,002,30,1,2025-06-09_12h52.35.075,מחקר פסיכולוגי,2024.2.4,120.16111195875001,2025-06-09 12h53.10.409124 +0300,
,10,10,0,,,,,,,,images2/image13.png,new | caucasian | flipped,"האדם בתמונה הוא:
1. זמר 
2. שחקן
3. ספורטאי
4. לא מכיר/ה
",2,3,8.893295699963346,None,,,,,,,,,0,10,10,12,340.4978992000688,,,,,,349.3961165000219,349.40273900004104,349.9442552999826,349.8950690999627,,,,,,,,,,,,,,,,,,,,,,,,,340.49376740003936,340.4978992000688,340.4978992000688,340.4978992000688,349.3960143000586,3,8.893295699963346,None,,,,,575642,002,30,1,2025-06-09_12h52.35.075,מחקר פסיכולוגי,2024.2.4,120.16111195875001,2025-06-09 12h53.10.409124 +0300,
,11,11,0,,,,,,,,images2/image62.png,old | caucasian | normal,"האדם בתמונה הוא:
1. זמר 
2. שחקן
3. פוליטיקאי
4. לא מכיר/ה
",4,2,7.917101300088689,None,,,,,,,,,0,11,11,19,349.9442552999826,,,,,,357.8706727999961,357.8763412,358.4069269,358.3609904999612,,,,,,,,,,,,,,,,,,,,,,,,,349.93937050004024,349.9442552999826,349.9442552999826,349.9442552999826,357.8705600000685,2,7.917101300088689,None,,,,,575642,002,30,1,2025-06-09_12h52.35.075,מחקר פסיכולוגי,2024.2.4,120.16111195875001,2025-06-09 12h53.10.409124 +0300,
,12,12,0,,,,,,,,images2/image41.png,old | caucasian | flipped,"האדם בתמונה הוא:
1. זמר 
2. שחקן
3. ספורטאי
4. לא מכיר/ה
",2,2,3.8201569999800995,None,,,,,,,,,0,12,12,28,358.4069269,,,,,,362.2298129000701,362.2345386999659,362.7357106000418,362.7191144999815,,,,,,,,,,,,,,,,,,,,,,,,,358.4032716,358.4069269,358.4069269,358.4069269,362.22969990002457,2,3.8201569999800995,None,,,,,575642,002,30,1,2025-06-09_12h52.35.075,מחקר פסיכולוגי,2024.2.4,120.16111195875001,2025-06-09 12h53.10.409124 +0300,
,13,13,0,,,,,,,,images2/image15.png,new | caucasian | flipped,"האדם בתמונה הוא:
1. זמר 
2. שחקן
3. ספורטאי
4. לא מכיר/ה
",2,4,7.431041899952106,None,,,,,,,,,0,13,13,14,362.7357106000418,,,,,,370.1711133000208,370.1759037000593,370.67606930003967,370.66048419999424,,,,,,,,,,,,,,,,,,,,,,,,,362.7319957000436,362.7357106000418,362.7357106000418,362.7357106000418,370.17092379997484,4,7.431041899952106,None,,,,,575642,002,30,1,2025-06-09_12h52.35.075,מחקר פסיכולוגי,2024.2.4,120.16111195875001,2025-06-09 12h53.10.409124 +0300,
,14,14,0,,,,,,,,images2/image44.png,old | caucasian | flipped,"האדם בתמונה הוא:
1. זמר 
2. שחקן
3. ספורטאי
4. לא מכיר/ה
",2,2,4.201697899959981,None,,,,,,,,,0,14,14,31,370.67606930003967,,,,,,374.8871989999898,374.8925451000687,375.39466019999236,375.3767037000507,,,,,,,,,,,,,,,,,,,,,,,,,370.67192790005356,370.67606930003967,370.67606930003967,370.67606930003967,374.8870454999851,2,4.201697899959981,None,,,,,575642,002,30,1,2025-06-09_12h52.35.075,מחקר פסיכולוגי,2024.2.4,120.16111195875001,2025-06-09 12h53.10.409124 +0300,
,15,15,0,,,,,,,,images2/image20.png,new | afrikan | normal,"האדם בתמונה הוא:
1. זמר 
2. שחקן
3. ספורטאי
4. לא מכיר/ה
",4,4,4.5558618,None,,,,,,,,,0,15,15,17,375.39466019999236,,,,,,379.9538471000269,379.95901370001957,380.47205620002933,380.4439426000463,,,,,,,,,,,,,,,,,,,,,,,,,375.3901833000127,375.39466019999236,375.39466019999236,375.39466019999236,379.9537382000126,4,4.5558618,None,,,,,575642,002,30,1,2025-06-09_12h52.35.075,מחקר פסיכולוגי,2024.2.4,120.16111195875001,2025-06-09 12h53.10.409124 +0300,
,16,16,0,,,,,,,,images2/image8.png,new | afrikan | normal,"האדם בתמונה הוא:
1. זמר 
2. שחקן
3. ספורטאי
4. לא מכיר/ה
",2,4,2.8152830000035465,None,,,,,,,,,0,16,16,7,380.47205620002933,,,,,,383.2949855000479,383.30063469999004,383.8003574999748,383.7851818000199,,,,,,,,,,,,,,,,,,,,,,,,,380.46693260001484,380.47205620002933,380.47205620002933,380.47205620002933,383.29488220007624,4,2.8152830000035465,None,,,,,575642,002,30,1,2025-06-09_12h52.35.075,מחקר פסיכולוגי,2024.2.4,120.16111195875001,2025-06-09 12h53.10.409124 +0300,
,17,17,0,,,,,,,,images2/image39.png,old | afrikan | normal,"האדם בתמונה הוא:
1. זמר 
2. שחקן
3. עתונאי
4. לא מכיר/ה
",2,2,3.7050865000346676,None,,,,,,,,,0,17,17,26,383.8003574999748,,,,,,387.51193420006894,387.51713300007395,388.0155289999675,388.0020241000457,,,,,,,,,,,,,,,,,,,,,,,,,383.79645290004555,383.8003574999748,383.8003574999748,383.8003574999748,387.5118014999898,2,3.7050865000346676,None,,,,,575642,002,30,1,2025-06-09_12h52.35.075,מחקר פסיכולוגי,2024.2.4,120.16111195875001,2025-06-09 12h53.10.409124 +0300,
,18,18,0,,,,,,,,images2/image11.png,new | caucasian | normal,"האדם בתמונה הוא:
1. זמר 
2. שחקן
3. ספורטאי
4. לא מכיר/ה
",3,3,2.7541502999374643,None,,,,,,,,,0,18,18,10,388.0155289999675,,,,,,390.7783375000581,390.7835959000513,391.2881637000246,391.26854740001727,,,,,,,,,,,,,,,,,,,,,,,,,388.0120121999644,388.0155289999675,388.0155289999675,388.0155289999675,390.77823210007045,3,2.7541502999374643,None,,,,,575642,002,30,1,2025-06-09_12h52.35.075,מחקר פסיכולוגי,2024.2.4,120.16111195875001,2025-06-09 12h53.10.409124 +0300,
,19,19,0,,,,,,,,images2/image35.png,old | afrikan | normal,"האדם בתמונה הוא:
1. זמר 
2. שחקן
3. פוליטיקאי
4. לא מכיר/ה
",3,3,3.572477600071579,None,,,,,,,,,0,19,19,22,391.2881637000246,,,,,,394.86913720006123,394.87524750002194,395.37494790006895,395.35990909999236,,,,,,,,,,,,,,,,,,,,,,,,,391.2844158,391.2881637000246,391.2881637000246,391.2881637000246,394.86901859997306,3,3.572477600071579,None,,,,,575642,002,30,1,2025-06-09_12h52.35.075,מחקר פסיכולוגי,2024.2.4,120.16111195875001,2025-06-09 12h53.10.409124 +0300,
,20,20,0,,,,,,,,images2/image12.png,new | caucasian | normal,"האדם בתמונה הוא:
1. זמר 
2. שחקן
3. ספורטאי
4. לא מכיר/ה
",2,2,6.2351537,None,,,,,,,,,0,20,20,11,395.37494790006895,,,,,,401.6190042999806,401.6251439,402.1241059000604,402.10946050006896,,,,,,,,,,,,,,,,,,,,,,,,,395.3712422000244,395.37494790006895,395.37494790006895,395.37494790006895,401.61883990000933,2,6.2351537,None,,,,,575642,002,30,1,2025-06-09_12h52.35.075,מחקר פסיכולוגי,2024.2.4,120.16111195875001,2025-06-09 12h53.10.409124 +0300,
,21,21,0,,,,,,,,images2/image10.png,new | caucasian | flipped,"האדם בתמונה הוא:
1. זמר 
2. שחקן
3. ספורטאי
4. לא מכיר/ה
",2,2,2.3541935000102967,None,,,,,,,,,0,21,21,9,402.1241059000604,,,,,,404.4861141999718,404.4915266999742,405.0146388000576,404.9762145000277,,,,,,,,,,,,,,,,,,,,,,,,,402.11952090007253,402.1241059000604,402.1241059000604,402.1241059000604,404.4860021000495,2,2.3541935000102967,None,,,,,575642,002,30,1,2025-06-09_12h52.35.075,מחקר פסיכולוגי,2024.2.4,120.16111195875001,2025-06-09 12h53.10.409124 +0300,
,22,22,0,,,,,,,,images2/image25.png,new | caucasian | normal,"האדם בתמונה הוא:
1. זמר 
2. שחקן
3. ספורטאי
4. לא מכיר/ה
",4,4,3.3690153000643477,None,,,,,,,,,0,22,22,18,405.0146388000576,,,,,,408.3855632999912,408.39140359999146,408.8958374999929,408.87619129999075,,,,,,,,,,,,,,,,,,,,,,,,,405.00997350004036,405.0146388000576,405.0146388000576,405.0146388000576,408.3854763000272,4,3.3690153000643477,None,,,,,575642,002,30,1,2025-06-09_12h52.35.075,מחקר פסיכולוגי,2024.2.4,120.16111195875001,2025-06-09 12h53.10.409124 +0300,
,23,23,0,,,,,,,,images2/image38.png,old | afrikan | flipped,"האדם בתמונה הוא:
1. זמר 
2. שחקן
3. עתונאי
4. לא מכיר/ה
",3,4,4.9882136000087485,None,,,,,,,,,0,23,23,25,408.8958374999929,,,,,,413.8871955999639,413.89124919997994,414.39710229996126,414.37580579996575,,,,,,,,,,,,,,,,,,,,,,,,,408.8904065999668,408.8958374999929,408.8958374999929,408.8958374999929,413.88707569998223,4,4.9882136000087485,None,,,,,575642,002,30,1,2025-06-09_12h52.35.075,מחקר פסיכולוגי,2024.2.4,120.16111195875001,2025-06-09 12h53.10.409124 +0300,
,24,24,0,,,,,,,,images2/image18.png,new | afrikan | flipped,"האדם בתמונה הוא:
1. זמר 
2. שחקן
3. ספורטאי
4. לא מכיר/ה
",4,4,2.1708993000211194,None,,,,,,,,,0,24,24,16,414.39710229996126,,,,,,416.5770733000245,416.58290510007646,417.0934230000712,417.0673133,,,,,,,,,,,,,,,,,,,,,,,,,414.3932359999744,414.39710229996126,414.39710229996126,414.39710229996126,416.57696079998277,4,2.1708993000211194,None,,,,,575642,002,30,1,2025-06-09_12h52.35.075,מחקר פסיכולוגי,2024.2.4,120.16111195875001,2025-06-09 12h53.10.409124 +0300,
,25,25,0,,,,,,,,images2/image7.png,new | afrikan | flipped,"האדם בתמונה הוא:
1. זמר 
2. שחקן
3. ספורטאי
4. לא מכיר/ה
",1,2,3.2026973,None,,,,,,,,,0,25,25,6,417.0934230000712,,,,,,420.30205900000874,420.30774499999825,420.8088036000263,420.7921335999854,,,,,,,,,,,,,,,,,,,,,,,,,417.089185,417.0934230000712,417.0934230000712,417.0934230000712,420.30193740001414,2,3.2026973,None,,,,,575642,002,30,1,2025-06-09_12h52.35.075,מחקר פסיכולוגי,2024.2.4,120.16111195875001,2025-06-09 12h53.10.409124 +0300,
,26,26,0,,,,,,,,images2/image14.png,new | caucasian | flipped,"האדם בתמונה הוא:
1. זמר 
2. שחקן
3. ספורטאי
4. לא מכיר/ה
",2,3,5.974802999990061,None,,,,,,,,,0,26,26,13,420.8088036000263,,,,,,426.7863232999807,426.79089259996545,427.29266020003706,427.27554940001573,,,,,,,,,,,,,,,,,,,,,,,,,420.8050166000612,420.8088036000263,420.8088036000263,420.8088036000263,426.78619979997166,3,5.974802999990061,None,,,,,575642,002,30,1,2025-06-09_12h52.35.075,מחקר פסיכולוגי,2024.2.4,120.16111195875001,2025-06-09 12h53.10.409124 +0300,
,27,27,0,,,,,,,,images2/image3.png,new | afrikan | flipped,"האדם בתמונה הוא:
1. זמר 
2. שחקן
3. ספורטאי
4. לא מכיר/ה
",3,3,8.7829757,None,,,,,,,,,0,27,27,2,427.29266020003706,,,,,,436.0856427999679,436.0908950000303,436.59476490004454,436.57587339996826,,,,,,,,,,,,,,,,,,,,,,,,,427.2886227000272,427.29266020003706,427.29266020003706,427.29266020003706,436.08549209998455,3,8.7829757,None,,,,,575642,002,30,1,2025-06-09_12h52.35.075,מחקר פסיכולוגי,2024.2.4,120.16111195875001,2025-06-09 12h53.10.409124 +0300,
,28,28,0,,,,,,,,images2/image37.png,old | afrikan | normal,"האדם בתמונה הוא:
1. זמר 
2. שחקן
3. עתונאי
4. לא מכיר/ה
",1,4,2.5994771000696346,None,,,,,,,,,0,28,28,24,436.59476490004454,,,,,,439.2020766000496,439.2070839999942,439.7072770000668,439.6919106000569,,,,,,,,,,,,,,,,,,,,,,,,,436.59068030002527,436.59476490004454,436.59476490004454,436.59476490004454,439.2019502000185,4,2.5994771000696346,None,,,,,575642,002,30,1,2025-06-09_12h52.35.075,מחקר פסיכולוגי,2024.2.4,120.16111195875001,2025-06-09 12h53.10.409124 +0300,
,29,29,0,,,,,,,,images2/image42.png,old | caucasian | normal,"האדם בתמונה הוא:
1. זמר 
2. שחקן
3. ספורטאי
4. לא מכיר/ה
",2,2,3.435539999976754,None,,,,,,,,,0,29,29,29,439.7072770000668,,,,,,443.15190579998307,443.15708939998876,443.66235380002763,443.64141220005695,,,,,,,,,,,,,,,,,,,,,,,,,439.7034469000064,439.7072770000668,439.7072770000668,439.7072770000668,443.15178269997705,2,3.435539999976754,None,,,,,575642,002,30,1,2025-06-09_12h52.35.075,מחקר פסיכולוגי,2024.2.4,120.16111195875001,2025-06-09 12h53.10.409124 +0300,
,30,30,0,,,,,,,,images2/image1.png,new | afrikan | normal,"האדם בתמונה הוא:
1. זמר
2. שחקן
3. ספורטאי
4. לא מכיר/ה
",1,1,9.2085232,None,,,,,,,,,0,30,30,0,443.66235380002763,,,,,,452.87660109996796,452.88175810000394,453.38115240004845,453.36640190007165,,,,,,,,,,,,,,,,,,,,,,,,,443.6585628000321,443.66235380002763,443.66235380002763,443.66235380002763,452.8764737000456,1,9.2085232,None,,,,,575642,002,30,1,2025-06-09_12h52.35.075,מחקר פסיכולוגי,2024.2.4,120.16111195875001,2025-06-09 12h53.10.409124 +0300,
,31,31,0,,,,,,,,images2/image5.png,new | afrikan | normal,"האדם בתמונה הוא:
1. זמר 
2. שחקן
3. ספורטאי
4. לא מכיר/ה
",2,2,2.636049299966544,None,,,,,,,,,0,31,31,4,453.38115240004845,,,,,,456.02679200004786,456.0315539999865,456.5325866000494,456.51639750006143,,,,,,,,,,,,,,,,,,,,,,,,,453.3776913000038,453.38115240004845,453.38115240004845,453.38115240004845,456.02669089997653,2,2.636049299966544,None,,,,,575642,002,30,1,2025-06-09_12h52.35.075,מחקר פסיכולוגי,2024.2.4,120.16111195875001,2025-06-09 12h53.10.409124 +0300,
,32,32,0,,,,,,,,images2/image2.png,new | afrikan | flipped,"האדם בתמונה הוא:
1. זמר 
2. שחקן
3. ספורטאי
4. לא מכיר/ה
",1,1,5.515659500029869,None,,,,,,,,,0,32,32,1,456.5325866000494,,,,,,462.05124990001787,462.05639629997313,462.5564926000079,462.5415753000416,,,,,,,,,,,,,,,,,,,,,,,,,456.5288989000255,456.5325866000494,456.5325866000494,456.5325866000494,462.05110330006573,1,5.515659500029869,None,,,,,575642,002,30,1,2025-06-09_12h52.35.075,מחקר פסיכולוגי,2024.2.4,120.16111195875001,2025-06-09 12h53.10.409124 +0300,
,33,33,0,,,,,,,,images2/image4.png,new | afrikan | flipped,"האדם בתמונה הוא:
1. זמר 
2. שחקן
3. ספורטאי
4. לא מכיר/ה
",1,4,3.780006399960257,None,,,,,,,,,0,33,33,3,462.5564926000079,,,,,,466.34264799999073,466.34804269997403,466.8481906000525,466.83243660000153,,,,,,,,,,,,,,,,,,,,,,,,,462.5525428999681,462.5564926000079,462.5564926000079,462.5564926000079,466.342534,4,3.780006399960257,None,,,,,575642,002,30,1,2025-06-09_12h52.35.075,מחקר פסיכולוגי,2024.2.4,120.16111195875001,2025-06-09 12h53.10.409124 +0300,
,34,34,0,,,,,,,,images2/image48.png,old | caucasian | normal,"האדם בתמונה הוא:
1. זמר 
2. שחקן
3. ספורטאי
4. לא מכיר/ה
",2,2,5.5169027000665665,None,,,,,,,,,0,34,34,35,466.8481906000525,,,,,,472.36806270002853,472.3728216,472.8735230000457,472.8573631000472,,,,,,,,,,,,,,,,,,,,,,,,,466.8439549000468,466.8481906000525,466.8481906000525,466.8481906000525,472.3679389000172,2,5.5169027000665665,None,,,,,575642,002,30,1,2025-06-09_12h52.35.075,מחקר פסיכולוגי,2024.2.4,120.16111195875001,2025-06-09 12h53.10.409124 +0300,
,35,35,0,,,,,,,,images2/image6.png,new | afrikan | normal,"האדם בתמונה הוא:
1. זמר 
2. שחקן
3. ספורטאי
4. לא מכיר/ה
",2,4,4.092311899992637,None,,,,,,,,,0,35,35,5,472.8735230000457,,,,,,476.9682862000773,476.97265070001595,477.4639110000571,477.4571471,,,,,,,,,,,,,,,,,,,,,,,,,472.8697337000631,472.8735230000457,472.8735230000457,472.8735230000457,476.9681725000264,4,4.092311899992637,None,,,,,575642,002,30,1,2025-06-09_12h52.35.075,מחקר פסיכולוגי,2024.2.4,120.16111195875001,2025-06-09 12h53.10.409124 +0300,
,,,,,,,,,,,,,,,,,,,,,,,,,,,,,,,,,,,,,,,,,,,,,,,,,,,,,,,,,,,,,,,,,,,,,,,,477.4573474000208,477.4639110000571,480.4557941000676,480.4489968,575642,002,30,1,2025-06-09_12h52.35.075,מחקר פסיכולוגי,2024.2.4,120.16111195875001,2025-06-09 12h53.10.409124 +0300,
,,,,,,,,,,old | caucasian | flipped,old | caucasian | normal,new | caucasian | flipped,new | caucasian | normal,old | afrikan | flipped,old | afrikan | normal,new | afrikan | flipped,new | afrikan | normal,,sum,,,,,,,,,,,,,,,,,,,,,,,,,,,,,,,,,,,,,,,,,,,,,,,,,,,,,,,,,,,,,,,,,,
,,,,,,,,,,4,3,3,4,3,2,3,2,,24,,,,,,,,,,,,,,,,,,,,,,,,,,,,,,,,,,,,,,,,,,,,,,,,,,,,,,,,,,,,,,,,,,
,,,,,,,,,,,,,,,,,,,,,,,,,,,,,,,,,,,,,,,,,,,,,,,,,,,,,,,,,,,,,,,,,,,,,,,,,,,,,,,,,,,,,
,,,,,,,,,,,,,,,,,,,,,,,,,,,,,,,,,,,,,,,,,,,,,,,,,,,,,,,,,,,,,,,,,,,,,,,,,,,,,,,,,,,,,
,,,,,,,,,,,,,,24,,,,,,,,,,,,,,,,,,,,,,,,,,,,,,,,,,,,,,,,,,,,,,,,,,,,,,,,,,,,,,,,,,,,,,,
