faceTesting,oldnew,race,isFamous,,faceAsking,options,correctOption,learningLoop.thisRepN,learningLoop.thisTrialN,learningLoop.thisN,learningLoop.thisIndex,testingLoop.thisRepN,testingLoop.thisTrialN,testingLoop.thisN,testingLoop.thisIndex,familiarnessLoop.thisRepN,familiarnessLoop.thisTrialN,familiarnessLoop.thisN,familiarnessLoop.thisIndex,thisRow.t,notes,haskama_2.started,haskama.started,key_resp.started,haskama_2.stopped,Blank500.started,image.started,Blank500.stopped,insLearning.started,insLearning_img.started,key_resp_2.started,insLearning.stopped,learningPic.started,facestudypic.started,learningPic.stopped,insTest.started,insTest_img.started,key_resp_4.started,insTest.stopped,image.stopped,testingPic.started,orientation,facetestpic.started,testkeys.started,testingPic.stopped,testkeys.keys,testkeys.rt,testkeys.duration,insFamiliarness.started,insFamiliarness_img.started,key_resp_5.started,insFamiliarness.stopped,familiarnessPic.started,familiarnessPic_img.started,familiarnessKeys.started,text.started,familiarnessPic.stopped,familiarnessKeys.keys,familiarnessKeys.rt,familiarnessKeys.duration,thankYou.started,text_2.started,text_2.stopped,thankYou.stopped,participant,session,age,"female=""1"""," male=""2""",date,expName,psychopyVersion,frameRate,expStart
,,,,,,,,,,,,,,,,,,,,,,0.0038035,0.0506333,0.0506333,1.4477428,,,,,,,,,,,,,,,,,,,,,,,,,,,,,,,,,,,,,,,,645644,1,25,1,2025-10-14_20h06.21.286,מחקר פסיכולוגי,2024.1.4,None,2025-10-14 20h06.44.233393 +0300,
,,,,,,,,,,,,,,,,,,,,,,,,,,1.4477958,1.4525902,1.9488008,,,,,,,,,,,,,,,,,,,,,,,,,,,,,,,,,,,,,645644,1,25,1,2025-10-14_20h06.21.286,מחקר פסיכולוגי,2024.1.4,None,2025-10-14 20h06.44.233393 +0300,
,,,,,,,,,,,,,,,,,,,,,,,,,,,,,1.9488443,1.9701327,1.9701327,3.4704533,,,,,,,,,,,,,,,,,,,,,,,,,,,,,,,,,645644,1,25,1,2025-10-14_20h06.21.286,מחקר פסיכולוגי,2024.1.4,None,2025-10-14 20h06.44.233393 +0300,
,,,,,,,,,,,,,,,,,,,,81.058952,,,,,,82.9830663,82.9977605,83.4810655,,,,,80.9824711,81.058952,82.9830144,83.481184,83.5018029,83.5018029,114.0037933,,,,,,,,,,,,,,,,,,,,,,,,,,645644,1,25,1,2025-10-14_20h06.21.286,מחקר פסיכולוגי,2024.1.4,None,2025-10-14 20h06.44.233393 +0300,
,,,,,,,,,,,,,,,,,,,,,,,,,,114.0038941,114.0138489,114.4990374,,,,,,,,,,,,114.5655549,,,,,,,,,,,,,,,,,,,,,,,,,645644,1,25,1,2025-10-14_20h06.21.286,מחקר פסיכולוגי,2024.1.4,None,2025-10-14 20h06.44.233393 +0300,
images2/image21.png,old,afrikan,unknown,,,,,,,,,0,0,0,20,,,,,114.5655549,,,,,,117.4721231,117.4780236,117.9664368,,,,,,,,,,,,118.0189032,114.5487037,flipped,114.5655549,114.5655549,117.4677699,left,2.8699342,None,,,,,,,,,,,,,,,,,645644,1,25,1,2025-10-14_20h06.21.286,מחקר פסיכולוגי,2024.1.4,None,2025-10-14 20h06.44.233393 +0300,
images2/image38.png,new,afrikan,famous,,,,,,,,,0,1,1,37,,,,,118.0189032,,,,,,119.1367076,119.1472875,119.6323763,,,,,,,,,,,,119.6977837,117.9673699,flipped,118.0189032,118.0189032,119.1356443,left,1.1013125,None,,,,,,,,,,,,,,,,,645644,1,25,1,2025-10-14_20h06.21.286,מחקר פסיכולוגי,2024.1.4,None,2025-10-14 20h06.44.233393 +0300,
images2/image49.png,new,afrikan,unknown,,,,,,,,,0,2,2,48,,,,,119.6977837,,,,,,120.4514406,120.463729,120.9488234,,,,,,,,,,,,120.9724329,119.6333487,flipped,119.6977837,119.6977837,120.4507454,left,0.7409119,None,,,,,,,,,,,,,,,,,645644,1,25,1,2025-10-14_20h06.21.286,מחקר פסיכולוגי,2024.1.4,None,2025-10-14 20h06.44.233393 +0300,
images2/image5.png,old,afrikan,famous,,,,,,,,,0,3,3,4,,,,,120.9724329,,,,,,121.9024204,121.9136816,122.3990379,,,,,,,,,,,,122.4183898,120.9497086,flipped,120.9724329,120.9724329,121.9015109,right,0.9144262,None,,,,,,,,,,,,,,,,,645644,1,25,1,2025-10-14_20h06.21.286,מחקר פסיכולוגי,2024.1.4,None,2025-10-14 20h06.44.233393 +0300,
images2/image12.png,old,caucasian,famous,,,,,,,,,0,4,4,11,,,,,122.4183898,,,,,,124.0718634,124.0806048,124.5657695,,,,,,,,,,,,124.5935031,122.400064,normal,122.4183898,122.4183898,124.0710788,right,1.649979,None,,,,,,,,,,,,,,,,,645644,1,25,1,2025-10-14_20h06.21.286,מחקר פסיכולוגי,2024.1.4,None,2025-10-14 20h06.44.233393 +0300,
images2/image1.png,old,afrikan,famous,,,,,,,,,0,5,5,0,,,,,124.5935031,,,,,,126.0361846,126.0470475,126.5325677,,,,,,,,,,,,126.5913995,124.5665411,normal,124.5935031,124.5935031,126.0352144,left,1.424308,None,,,,,,,,,,,,,,,,,645644,1,25,1,2025-10-14_20h06.21.286,מחקר פסיכולוגי,2024.1.4,None,2025-10-14 20h06.44.233393 +0300,
images2/image58.png,new,caucasian,unknown,,,,,,,,,0,6,6,57,,,,,126.5913995,,,,,,127.2708435,127.2801369,127.7667422,,,,,,,,,,,,127.7917692,126.5335289,flipped,126.5913995,126.5913995,127.2699684,left,0.6748938,None,,,,,,,,,,,,,,,,,645644,1,25,1,2025-10-14_20h06.21.286,מחקר פסיכולוגי,2024.1.4,None,2025-10-14 20h06.44.233393 +0300,
images2/image9.png,old,caucasian,famous,,,,,,,,,0,7,7,8,,,,,127.7917692,,,,,,129.0029844,129.0133797,129.4988688,,,,,,,,,,,,129.5226635,127.7677585,flipped,127.7917692,127.7917692,129.0021826,left,1.2012937,None,,,,,,,,,,,,,,,,,645644,1,25,1,2025-10-14_20h06.21.286,מחקר פסיכולוגי,2024.1.4,None,2025-10-14 20h06.44.233393 +0300,
images2/image31.png,old,caucasian,unknown,,,,,,,,,0,8,8,30,,,,,129.5226635,,,,,,130.1870821,130.1969445,130.6825474,,,,,,,,,,,,130.7550446,129.4999055,flipped,129.5226635,129.5226635,130.1860626,left,0.646396,None,,,,,,,,,,,,,,,,,645644,1,25,1,2025-10-14_20h06.21.286,מחקר פסיכולוגי,2024.1.4,None,2025-10-14 20h06.44.233393 +0300,
images2/image44.png,new,caucasian,famous,,,,,,,,,0,9,9,43,,,,,130.7550446,,,,,,131.4877225,131.4966121,131.9825611,,,,,,,,,,,,132.0267906,130.6835303,normal,130.7550446,130.7550446,131.4867489,left,0.7142006,None,,,,,,,,,,,,,,,,,645644,1,25,1,2025-10-14_20h06.21.286,מחקר פסיכולוגי,2024.1.4,None,2025-10-14 20h06.44.233393 +0300,
images2/image46.png,new,caucasian,famous,,,,,,,,,0,10,10,45,,,,,132.0267906,,,,,,132.8680393,132.8798025,133.3708241,,,,,,,,,,,,133.4538162,131.9834941,flipped,132.0267906,132.0267906,132.8674176,left,0.8325614,None,,,,,,,,,,,,,,,,,645644,1,25,1,2025-10-14_20h06.21.286,מחקר פסיכולוגי,2024.1.4,None,2025-10-14 20h06.44.233393 +0300,
images2/image45.png,new,caucasian,famous,,,,,,,,,0,11,11,44,,,,,133.4538162,,,,,,135.0203284,135.0301477,135.5165585,,,,,,,,,,,,135.5387345,133.3714175,flipped,133.4538162,133.4538162,135.0194075,right,1.5555343,None,,,,,,,,,,,,,,,,,645644,1,25,1,2025-10-14_20h06.21.286,מחקר פסיכולוגי,2024.1.4,None,2025-10-14 20h06.44.233393 +0300,
images2/image3.png,old,afrikan,famous,,,,,,,,,0,12,12,2,,,,,135.5387345,,,,,,136.8540301,136.8635914,137.3491174,,,,,,,,,,,,137.5259138,135.5175631,normal,135.5387345,135.5387345,136.8532418,left,1.3079379,None,,,,,,,,,,,,,,,,,645644,1,25,1,2025-10-14_20h06.21.286,מחקר פסיכולוגי,2024.1.4,None,2025-10-14 20h06.44.233393 +0300,
images2/image59.png,new,caucasian,unknown,,,,,,,,,0,13,13,58,,,,,137.5259138,,,,,,138.5201288,138.5298562,139.0150896,,,,,,,,,,,,139.0985511,137.350071,flipped,137.5259138,137.5259138,138.5192503,left,0.9831543,None,,,,,,,,,,,,,,,,,645644,1,25,1,2025-10-14_20h06.21.286,מחקר פסיכולוגי,2024.1.4,None,2025-10-14 20h06.44.233393 +0300,
images2/image16.png,old,caucasian,famous,,,,,,,,,0,14,14,15,,,,,139.0985511,,,,,,140.1857113,140.1966848,140.6814026,,,,,,,,,,,,140.7449151,139.0160375,normal,139.0985511,139.0985511,140.184794,left,1.0740919,None,,,,,,,,,,,,,,,,,645644,1,25,1,2025-10-14_20h06.21.286,מחקר פסיכולוגי,2024.1.4,None,2025-10-14 20h06.44.233393 +0300,
images2/image41.png,new,caucasian,famous,,,,,,,,,0,15,15,40,,,,,140.7449151,,,,,,141.5369003,141.5465241,142.0313768,,,,,,,,,,,,142.0906714,140.6821573,flipped,140.7449151,140.7449151,141.5359567,left,0.7849563,None,,,,,,,,,,,,,,,,,645644,1,25,1,2025-10-14_20h06.21.286,מחקר פסיכולוגי,2024.1.4,None,2025-10-14 20h06.44.233393 +0300,
images2/image34.png,new,afrikan,famous,,,,,,,,,0,16,16,33,,,,,142.0906714,,,,,,143.2045987,143.2131955,143.6988261,,,,,,,,,,,,143.7196241,142.0322531,normal,142.0906714,142.0906714,143.2037412,left,1.1086686,None,,,,,,,,,,,,,,,,,645644,1,25,1,2025-10-14_20h06.21.286,מחקר פסיכולוגי,2024.1.4,None,2025-10-14 20h06.44.233393 +0300,
images2/image30.png,old,caucasian,unknown,,,,,,,,,0,17,17,29,,,,,143.7196241,,,,,,145.2044334,145.2130091,145.6992466,,,,,,,,,,,,145.7555875,143.6997838,normal,143.7196241,143.7196241,145.2035093,left,1.4802437,None,,,,,,,,,,,,,,,,,645644,1,25,1,2025-10-14_20h06.21.286,מחקר פסיכולוגי,2024.1.4,None,2025-10-14 20h06.44.233393 +0300,
images2/image55.png,new,afrikan,unknown,,,,,,,,,0,18,18,54,,,,,145.7555875,,,,,,149.4353405,149.4462331,149.9317293,,,,,,,,,,,,149.9509511,145.6999547,flipped,145.7555875,145.7555875,149.4344218,left,3.6609953,None,,,,,,,,,,,,,,,,,645644,1,25,1,2025-10-14_20h06.21.286,מחקר פסיכולוגי,2024.1.4,None,2025-10-14 20h06.44.233393 +0300,
images2/image29.png,old,caucasian,unknown,,,,,,,,,0,19,19,28,,,,,149.9509511,,,,,,150.7358456,150.7462402,151.2330924,,,,,,,,,,,,151.296312,149.9326126,flipped,149.9509511,149.9509511,150.7349288,left,0.7724429,None,,,,,,,,,,,,,,,,,645644,1,25,1,2025-10-14_20h06.21.286,מחקר פסיכולוגי,2024.1.4,None,2025-10-14 20h06.44.233393 +0300,
images2/image40.png,new,afrikan,famous,,,,,,,,,0,20,20,39,,,,,151.296312,,,,,,152.2533128,152.2628979,152.7482971,,,,,,,,,,,,152.8137149,151.2339868,flipped,151.296312,151.296312,152.2523119,left,0.9498804,None,,,,,,,,,,,,,,,,,645644,1,25,1,2025-10-14_20h06.21.286,מחקר פסיכולוגי,2024.1.4,None,2025-10-14 20h06.44.233393 +0300,
images2/image53.png,new,afrikan,unknown,,,,,,,,,0,21,21,52,,,,,152.8137149,,,,,,153.6873633,153.6963807,154.1812759,,,,,,,,,,,,154.2310432,152.74913,normal,152.8137149,152.8137149,153.6862899,left,0.8686866,None,,,,,,,,,,,,,,,,,645644,1,25,1,2025-10-14_20h06.21.286,מחקר פסיכולוגי,2024.1.4,None,2025-10-14 20h06.44.233393 +0300,
images2/image33.png,new,afrikan,famous,,,,,,,,,0,22,22,32,,,,,154.2310432,,,,,,154.8024064,154.8129941,155.2990992,,,,,,,,,,,,155.3286392,154.1820165,normal,154.2310432,154.2310432,154.8015377,left,0.5601124,None,,,,,,,,,,,,,,,,,645644,1,25,1,2025-10-14_20h06.21.286,מחקר פסיכולוגי,2024.1.4,None,2025-10-14 20h06.44.233393 +0300,
images2/image18.png,old,afrikan,unknown,,,,,,,,,0,23,23,17,,,,,155.3286392,,,,,,158.1709667,158.1795352,158.6650236,,,,,,,,,,,,158.6873803,155.3001172,flipped,155.3286392,155.3286392,158.1700877,left,2.8344421,None,,,,,,,,,,,,,,,,,645644,1,25,1,2025-10-14_20h06.21.286,מחקר פסיכולוגי,2024.1.4,None,2025-10-14 20h06.44.233393 +0300,
images2/image17.png,old,afrikan,unknown,,,,,,,,,0,24,24,16,,,,,158.6873803,,,,,,160.8855188,160.8962402,161.3817104,,,,,,,,,,,,161.4423114,158.6660313,flipped,158.6873803,158.6873803,160.8847597,left,2.187845,None,,,,,,,,,,,,,,,,,645644,1,25,1,2025-10-14_20h06.21.286,מחקר פסיכולוגי,2024.1.4,None,2025-10-14 20h06.44.233393 +0300,
images2/image48.png,new,caucasian,famous,,,,,,,,,0,25,25,47,,,,,161.4423114,,,,,,162.1184933,162.1298431,162.6147096,,,,,,,,,,,,162.635468,161.3826611,normal,161.4423114,161.4423114,162.1177455,right,0.6614948,None,,,,,,,,,,,,,,,,,645644,1,25,1,2025-10-14_20h06.21.286,מחקר פסיכולוגי,2024.1.4,None,2025-10-14 20h06.44.233393 +0300,
images2/image27.png,old,caucasian,unknown,,,,,,,,,0,26,26,26,,,,,162.635468,,,,,,163.353295,163.362864,163.848676,,,,,,,,,,,,163.8715591,162.6155356,normal,162.635468,162.635468,163.3523264,left,0.7126667,None,,,,,,,,,,,,,,,,,645644,1,25,1,2025-10-14_20h06.21.286,מחקר פסיכולוגי,2024.1.4,None,2025-10-14 20h06.44.233393 +0300,
images2/image14.png,old,caucasian,famous,,,,,,,,,0,27,27,13,,,,,163.8715591,,,,,,164.7861755,164.7959202,165.2815354,,,,,,,,,,,,165.3331123,163.8496536,normal,163.8715591,163.8715591,164.7848516,left,0.900352,None,,,,,,,,,,,,,,,,,645644,1,25,1,2025-10-14_20h06.21.286,מחקר פסיכולוגי,2024.1.4,None,2025-10-14 20h06.44.233393 +0300,
images2/image39.png,new,afrikan,famous,,,,,,,,,0,28,28,38,,,,,165.3331123,,,,,,168.92073,168.929159,169.414937,,,,,,,,,,,,169.562823,165.2825692,flipped,165.3331123,165.3331123,168.9198259,left,3.5790241,None,,,,,,,,,,,,,,,,,645644,1,25,1,2025-10-14_20h06.21.286,מחקר פסיכולוגי,2024.1.4,None,2025-10-14 20h06.44.233393 +0300,
images2/image56.png,new,afrikan,unknown,,,,,,,,,0,29,29,55,,,,,169.562823,,,,,,170.8019231,170.8126605,171.2974795,,,,,,,,,,,,171.3705177,169.415838,flipped,169.562823,169.562823,170.8011092,left,1.2296045,None,,,,,,,,,,,,,,,,,645644,1,25,1,2025-10-14_20h06.21.286,מחקר פסיכולוגי,2024.1.4,None,2025-10-14 20h06.44.233393 +0300,
images2/image52.png,new,afrikan,unknown,,,,,,,,,0,30,30,51,,,,,171.3705177,,,,,,172.9369346,172.9460591,173.4326523,,,,,,,,,,,,173.4976481,171.2981909,normal,171.3705177,171.3705177,172.9361392,right,1.5623125,None,,,,,,,,,,,,,,,,,645644,1,25,1,2025-10-14_20h06.21.286,מחקר פסיכולוגי,2024.1.4,None,2025-10-14 20h06.44.233393 +0300,
images2/image54.png,new,afrikan,unknown,,,,,,,,,0,31,31,53,,,,,173.4976481,,,,,,174.2855202,174.2957674,174.7808649,,,,,,,,,,,,174.8227987,173.4336508,normal,173.4976481,173.4976481,174.2844679,right,0.776602,None,,,,,,,,,,,,,,,,,645644,1,25,1,2025-10-14_20h06.21.286,מחקר פסיכולוגי,2024.1.4,None,2025-10-14 20h06.44.233393 +0300,
images2/image57.png,new,caucasian,unknown,,,,,,,,,0,32,32,56,,,,,174.8227987,,,,,,175.4526123,175.4625592,175.9478612,,,,,,,,,,,,175.9976769,174.7815445,flipped,174.8227987,174.8227987,175.4518476,left,0.6224422,None,,,,,,,,,,,,,,,,,645644,1,25,1,2025-10-14_20h06.21.286,מחקר פסיכולוגי,2024.1.4,None,2025-10-14 20h06.44.233393 +0300,
images2/image51.png,new,afrikan,unknown,,,,,,,,,0,33,33,50,,,,,175.9976769,,,,,,176.7014233,176.7134318,177.1989229,,,,,,,,,,,,177.2736278,175.9486025,flipped,175.9976769,175.9976769,176.7006613,left,0.6913229,None,,,,,,,,,,,,,,,,,645644,1,25,1,2025-10-14_20h06.21.286,מחקר פסיכולוגי,2024.1.4,None,2025-10-14 20h06.44.233393 +0300,
images2/image64.png,new,caucasian,unknown,,,,,,,,,0,34,34,63,,,,,177.2736278,,,,,,177.9866588,177.9958557,178.4824193,,,,,,,,,,,,178.50207,177.1999317,normal,177.2736278,177.2736278,177.9859028,left,0.7059579,None,,,,,,,,,,,,,,,,,645644,1,25,1,2025-10-14_20h06.21.286,מחקר פסיכולוגי,2024.1.4,None,2025-10-14 20h06.44.233393 +0300,
images2/image2.png,old,afrikan,famous,,,,,,,,,0,35,35,1,,,,,178.50207,,,,,,180.1360934,180.1456986,180.6313277,,,,,,,,,,,,180.6479731,178.4833263,flipped,178.50207,178.50207,180.1350343,left,1.6160321,None,,,,,,,,,,,,,,,,,645644,1,25,1,2025-10-14_20h06.21.286,מחקר פסיכולוגי,2024.1.4,None,2025-10-14 20h06.44.233393 +0300,
images2/image10.png,old,caucasian,famous,,,,,,,,,0,36,36,9,,,,,180.6479731,,,,,,183.551763,183.5624974,184.047973,,,,,,,,,,,,184.2483849,180.6321699,normal,180.6479731,180.6479731,183.5510267,left,2.8870951,None,,,,,,,,,,,,,,,,,645644,1,25,1,2025-10-14_20h06.21.286,מחקר פסיכולוגי,2024.1.4,None,2025-10-14 20h06.44.233393 +0300,
images2/image62.png,new,caucasian,unknown,,,,,,,,,0,37,37,61,,,,,184.2483849,,,,,,187.0194425,187.0291819,187.5133559,,,,,,,,,,,,187.5897538,184.0489009,flipped,184.2483849,184.2483849,187.0186565,left,2.7605592,None,,,,,,,,,,,,,,,,,645644,1,25,1,2025-10-14_20h06.21.286,מחקר פסיכולוגי,2024.1.4,None,2025-10-14 20h06.44.233393 +0300,
images2/image35.png,new,afrikan,famous,,,,,,,,,0,38,38,34,,,,,187.5897538,,,,,,188.3358207,188.3455722,188.8318604,,,,,,,,,,,,188.8563989,187.513936,normal,187.5897538,187.5897538,188.3349181,left,0.7314493,None,,,,,,,,,,,,,,,,,645644,1,25,1,2025-10-14_20h06.21.286,מחקר פסיכולוגי,2024.1.4,None,2025-10-14 20h06.44.233393 +0300,
images2/image13.png,old,caucasian,famous,,,,,,,,,0,39,39,12,,,,,188.8563989,,,,,,193.4199735,193.4293191,193.9150447,,,,,,,,,,,,193.9839055,188.8329269,flipped,188.8563989,188.8563989,193.4192296,left,4.5573727,None,,,,,,,,,,,,,,,,,645644,1,25,1,2025-10-14_20h06.21.286,מחקר פסיכולוגי,2024.1.4,None,2025-10-14 20h06.44.233393 +0300,
images2/image36.png,new,afrikan,famous,,,,,,,,,0,40,40,35,,,,,193.9839055,,,,,,195.1013509,195.1121712,195.5982666,,,,,,,,,,,,195.6652096,193.9159499,normal,193.9839055,193.9839055,195.1004058,left,1.1060318,None,,,,,,,,,,,,,,,,,645644,1,25,1,2025-10-14_20h06.21.286,מחקר פסיכולוגי,2024.1.4,None,2025-10-14 20h06.44.233393 +0300,
images2/image50.png,new,afrikan,unknown,,,,,,,,,0,41,41,49,,,,,195.6652096,,,,,,197.7358225,197.7454649,198.231925,,,,,,,,,,,,198.3114159,195.5992091,normal,195.6652096,195.6652096,197.7346288,left,2.0528315,None,,,,,,,,,,,,,,,,,645644,1,25,1,2025-10-14_20h06.21.286,מחקר פסיכולוגי,2024.1.4,None,2025-10-14 20h06.44.233393 +0300,
images2/image60.png,new,caucasian,unknown,,,,,,,,,0,42,42,59,,,,,198.3114159,,,,,,200.4522422,200.4623788,200.9479474,,,,,,,,,,,,200.9648087,198.2330906,normal,198.3114159,198.3114159,200.4514568,left,2.124157,None,,,,,,,,,,,,,,,,,645644,1,25,1,2025-10-14_20h06.21.286,מחקר פסיכולוגי,2024.1.4,None,2025-10-14 20h06.44.233393 +0300,
images2/image11.png,old,caucasian,famous,,,,,,,,,0,43,43,10,,,,,200.9648087,,,,,,202.6347775,202.6456676,203.130638,,,,,,,,,,,,203.188262,200.9488735,flipped,200.9648087,200.9648087,202.633909,left,1.6544135,None,,,,,,,,,,,,,,,,,645644,1,25,1,2025-10-14_20h06.21.286,מחקר פסיכולוגי,2024.1.4,None,2025-10-14 20h06.44.233393 +0300,
images2/image42.png,new,caucasian,famous,,,,,,,,,0,44,44,41,,,,,203.188262,,,,,,204.6853014,204.6954856,205.1815833,,,,,,,,,,,,205.2443337,203.1313168,normal,203.188262,203.188262,204.6844753,left,1.4794731,None,,,,,,,,,,,,,,,,,645644,1,25,1,2025-10-14_20h06.21.286,מחקר פסיכולוגי,2024.1.4,None,2025-10-14 20h06.44.233393 +0300,
images2/image61.png,new,caucasian,unknown,,,,,,,,,0,45,45,60,,,,,205.2443337,,,,,,206.4839351,206.4955528,206.9804323,,,,,,,,,,,,207.0385892,205.1824731,normal,205.2443337,205.2443337,206.4830844,left,1.221172,None,,,,,,,,,,,,,,,,,645644,1,25,1,2025-10-14_20h06.21.286,מחקר פסיכולוגי,2024.1.4,None,2025-10-14 20h06.44.233393 +0300,
images2/image47.png,new,caucasian,famous,,,,,,,,,0,46,46,46,,,,,207.0385892,,,,,,209.3045539,209.3119488,209.7974635,,,,,,,,,,,,209.820641,206.9813229,flipped,207.0385892,207.0385892,209.3035689,right,2.2498718,None,,,,,,,,,,,,,,,,,645644,1,25,1,2025-10-14_20h06.21.286,מחקר פסיכולוגי,2024.1.4,None,2025-10-14 20h06.44.233393 +0300,
images2/image23.png,old,afrikan,unknown,,,,,,,,,0,47,47,22,,,,,209.820641,,,,,,211.8681455,211.8785457,212.3644235,,,,,,,,,,,,212.3951048,209.7982857,flipped,209.820641,209.820641,211.8673381,right,2.0407982,None,,,,,,,,,,,,,,,,,645644,1,25,1,2025-10-14_20h06.21.286,מחקר פסיכולוגי,2024.1.4,None,2025-10-14 20h06.44.233393 +0300,
images2/image7.png,old,afrikan,famous,,,,,,,,,0,48,48,6,,,,,212.3951048,,,,,,214.7502462,214.761914,215.2486558,,,,,,,,,,,,215.2811844,212.3653788,flipped,212.3951048,212.3951048,214.7494711,left,2.3391981,None,,,,,,,,,,,,,,,,,645644,1,25,1,2025-10-14_20h06.21.286,מחקר פסיכולוגי,2024.1.4,None,2025-10-14 20h06.44.233393 +0300,
images2/image26.png,old,caucasian,unknown,,,,,,,,,0,49,49,25,,,,,215.2811844,,,,,,217.8519105,217.8619267,218.3484312,,,,,,,,,,,,218.3755329,215.2495313,flipped,215.2811844,215.2811844,217.8511097,left,2.5541566,None,,,,,,,,,,,,,,,,,645644,1,25,1,2025-10-14_20h06.21.286,מחקר פסיכולוגי,2024.1.4,None,2025-10-14 20h06.44.233393 +0300,
images2/image22.png,old,afrikan,unknown,,,,,,,,,0,50,50,21,,,,,218.3755329,,,,,,220.6516935,220.6616732,221.1474982,,,,,,,,,,,,221.1681189,218.3495235,normal,218.3755329,218.3755329,220.6507944,right,2.2659268,None,,,,,,,,,,,,,,,,,645644,1,25,1,2025-10-14_20h06.21.286,מחקר פסיכולוגי,2024.1.4,None,2025-10-14 20h06.44.233393 +0300,
images2/image15.png,old,caucasian,famous,,,,,,,,,0,51,51,14,,,,,221.1681189,,,,,,222.7675631,222.7783937,223.2637092,,,,,,,,,,,,223.2815538,221.1483884,flipped,221.1681189,221.1681189,222.7665649,right,1.5935783,None,,,,,,,,,,,,,,,,,645644,1,25,1,2025-10-14_20h06.21.286,מחקר פסיכולוגי,2024.1.4,None,2025-10-14 20h06.44.233393 +0300,
images2/image6.png,old,afrikan,famous,,,,,,,,,0,52,52,5,,,,,223.2815538,,,,,,224.9172979,224.928339,225.413494,,,,,,,,,,,,225.4334625,223.2645133,normal,223.2815538,223.2815538,224.9163976,left,1.6189865,None,,,,,,,,,,,,,,,,,645644,1,25,1,2025-10-14_20h06.21.286,מחקר פסיכולוגי,2024.1.4,None,2025-10-14 20h06.44.233393 +0300,
images2/image19.png,old,afrikan,unknown,,,,,,,,,0,53,53,18,,,,,225.4334625,,,,,,226.5347821,226.5449038,227.0298185,,,,,,,,,,,,227.0658895,225.414276,normal,225.4334625,225.4334625,226.5338259,left,1.0961193,None,,,,,,,,,,,,,,,,,645644,1,25,1,2025-10-14_20h06.21.286,מחקר פסיכולוגי,2024.1.4,None,2025-10-14 20h06.44.233393 +0300,
images2/image24.png,old,afrikan,unknown,,,,,,,,,0,54,54,23,,,,,227.0658895,,,,,,228.7502917,228.7615253,229.2461118,,,,,,,,,,,,229.3024469,227.0306429,normal,227.0658895,227.0658895,228.7495744,left,1.6699928,None,,,,,,,,,,,,,,,,,645644,1,25,1,2025-10-14_20h06.21.286,מחקר פסיכולוגי,2024.1.4,None,2025-10-14 20h06.44.233393 +0300,
images2/image28.png,old,caucasian,unknown,,,,,,,,,0,55,55,27,,,,,229.3024469,,,,,,230.4835491,230.495055,230.9801744,,,,,,,,,,,,231.0439394,229.2467081,flipped,229.3024469,229.3024469,230.4827947,left,1.1629725,None,,,,,,,,,,,,,,,,,645644,1,25,1,2025-10-14_20h06.21.286,מחקר פסיכולוגי,2024.1.4,None,2025-10-14 20h06.44.233393 +0300,
images2/image37.png,new,afrikan,famous,,,,,,,,,0,56,56,36,,,,,231.0439394,,,,,,232.3342626,232.3449201,232.8305721,,,,,,,,,,,,232.8503664,230.980969,flipped,231.0439394,231.0439394,232.3333784,left,1.2756382,None,,,,,,,,,,,,,,,,,645644,1,25,1,2025-10-14_20h06.21.286,מחקר פסיכולוגי,2024.1.4,None,2025-10-14 20h06.44.233393 +0300,
images2/image32.png,old,caucasian,unknown,,,,,,,,,0,57,57,31,,,,,232.8503664,,,,,,233.8344395,233.844941,234.3304855,,,,,,,,,,,,234.3930901,232.8313461,normal,232.8503664,232.8503664,233.8335922,left,0.97288,None,,,,,,,,,,,,,,,,,645644,1,25,1,2025-10-14_20h06.21.286,מחקר פסיכולוגי,2024.1.4,None,2025-10-14 20h06.44.233393 +0300,
images2/image63.png,new,caucasian,unknown,,,,,,,,,0,58,58,62,,,,,234.3930901,,,,,,235.4848143,235.4946476,235.9804803,,,,,,,,,,,,236.0044907,234.3313879,normal,234.3930901,234.3930901,235.4840044,left,1.080977,None,,,,,,,,,,,,,,,,,645644,1,25,1,2025-10-14_20h06.21.286,מחקר פסיכולוגי,2024.1.4,None,2025-10-14 20h06.44.233393 +0300,
images2/image8.png,old,afrikan,famous,,,,,,,,,0,59,59,7,,,,,236.0044907,,,,,,237.3519149,237.3615373,237.8470951,,,,,,,,,,,,237.8684215,235.9813175,flipped,236.0044907,236.0044907,237.3511484,left,1.3419524,None,,,,,,,,,,,,,,,,,645644,1,25,1,2025-10-14_20h06.21.286,מחקר פסיכולוגי,2024.1.4,None,2025-10-14 20h06.44.233393 +0300,
images2/image20.png,old,afrikan,unknown,,,,,,,,,0,60,60,19,,,,,237.8684215,,,,,,239.3517217,239.361811,239.8464342,,,,,,,,,,,,239.895445,237.8479764,normal,237.8684215,237.8684215,239.3508439,left,1.4751216,None,,,,,,,,,,,,,,,,,645644,1,25,1,2025-10-14_20h06.21.286,מחקר פסיכולוגי,2024.1.4,None,2025-10-14 20h06.44.233393 +0300,
images2/image43.png,new,caucasian,famous,,,,,,,,,0,61,61,42,,,,,239.895445,,,,,,241.9510236,241.9613951,242.4474529,,,,,,,,,,,,242.5043292,239.8472045,normal,239.895445,239.895445,241.9501667,right,2.0411631,None,,,,,,,,,,,,,,,,,645644,1,25,1,2025-10-14_20h06.21.286,מחקר פסיכולוגי,2024.1.4,None,2025-10-14 20h06.44.233393 +0300,
images2/image25.png,old,caucasian,unknown,,,,,,,,,0,62,62,24,,,,,242.5043292,,,,,,245.3667752,245.3784376,245.8636965,,,,,,,,,,,,245.8893645,242.4482857,normal,242.5043292,242.5043292,245.3661069,left,2.853681,None,,,,,,,,,,,,,,,,,645644,1,25,1,2025-10-14_20h06.21.286,מחקר פסיכולוגי,2024.1.4,None,2025-10-14 20h06.44.233393 +0300,
images2/image4.png,old,afrikan,famous,,,,,,,,,0,63,63,3,,,,,245.8893645,,,,,,248.3845111,248.3947676,248.8795417,,,,,,,,,,,,248.8991966,245.864609,normal,245.8893645,245.8893645,248.3836807,right,2.4753749,None,,,,,,,,,,,,,,,,,645644,1,25,1,2025-10-14_20h06.21.286,מחקר פסיכולוגי,2024.1.4,None,2025-10-14 20h06.44.233393 +0300,
,,,,,,,,,,,,,,,,,,,,,,,,,,,,,,,,,,,,,,,,,,,,,,,,,248.8797075,248.8991966,248.8991966,251.0683216,,,,,,,,,,,,,645644,1,25,1,2025-10-14_20h06.21.286,מחקר פסיכולוגי,2024.1.4,None,2025-10-14 20h06.44.233393 +0300,
,,,,,,,,,,,,,,,,,,,,,,,,,,251.068415,251.0778574,251.5635128,,,,,,,,,,,,251.679786,,,,,,,,,,,,,,,,,,,,,,,,,645644,1,25,1,2025-10-14_20h06.21.286,מחקר פסיכולוגי,2024.1.4,None,2025-10-14 20h06.44.233393 +0300,
,,,,new | afrikan | flipped,images2/image38.png,"האדם בתמונה הוא:
1. זמר 
2. שחקן
3. עתונאי
4. לא מכיר/ה
",3,,,,,,,,,0,0,0,25,251.679786,,,,,,254.5510168,254.5610328,255.0462819,,,,,,,,,,,,255.1172044,,,,,,,,,,,,,251.6134713,251.679786,251.679786,251.679786,254.5497426,3,2.8650812,None,,,,,645644,1,25,1,2025-10-14_20h06.21.286,מחקר פסיכולוגי,2024.1.4,None,2025-10-14 20h06.44.233393 +0300,
,,,,old | caucasian | normal,images2/image25.png,"האדם בתמונה הוא:
1. זמר 
2. שחקן
3. ספורטאי
4. לא מכיר/ה
",4,,,,,,,,,0,1,1,18,255.1172044,,,,,,259.2172954,259.2277385,259.7144861,,,,,,,,,,,,259.7685004,,,,,,,,,,,,,255.0471195,255.1172044,255.1172044,255.1172044,259.2164229,4,4.0904959,None,,,,,645644,1,25,1,2025-10-14_20h06.21.286,מחקר פסיכולוגי,2024.1.4,None,2025-10-14 20h06.44.233393 +0300,
,,,,old | afrikan | normal,images2/image4.png,"האדם בתמונה הוא:
1. זמר 
2. שחקן
3. ספורטאי
4. לא מכיר/ה
",1,,,,,,,,,0,2,2,3,259.7685004,,,,,,262.7495885,262.7609437,263.2466465,,,,,,,,,,,,263.2738564,,,,,,,,,,,,,259.7154184,259.7685004,259.7685004,259.7685004,262.7488042,1,2.9759718,None,,,,,645644,1,25,1,2025-10-14_20h06.21.286,מחקר פסיכולוגי,2024.1.4,None,2025-10-14 20h06.44.233393 +0300,
,,,,new | caucasian | normal,images2/image42.png,"האדם בתמונה הוא:
1. זמר 
2. שחקן
3. ספורטאי
4. לא מכיר/ה
",2,,,,,,,,,0,3,3,29,263.2738564,,,,,,264.7831141,264.7946285,265.2790922,,,,,,,,,,,,265.3071338,,,,,,,,,,,,,263.2476192,263.2738564,263.2738564,263.2738564,264.7823323,2,1.4977243,None,,,,,645644,1,25,1,2025-10-14_20h06.21.286,מחקר פסיכולוגי,2024.1.4,None,2025-10-14 20h06.44.233393 +0300,
,,,,old | afrikan | normal,images2/image3.png,"האדם בתמונה הוא:
1. זמר 
2. שחקן
3. ספורטאי
4. לא מכיר/ה
",3,,,,,,,,,0,4,4,2,265.3071338,,,,,,266.8159561,266.8276221,267.3128703,,,,,,,,,,,,267.3595274,,,,,,,,,,,,,265.2797691,265.3071338,265.3071338,265.3071338,266.8152699,4,1.5050426,None,,,,,645644,1,25,1,2025-10-14_20h06.21.286,מחקר פסיכולוגי,2024.1.4,None,2025-10-14 20h06.44.233393 +0300,
,,,,old | afrikan | flipped,images2/image5.png,"האדם בתמונה הוא:
1. זמר 
2. שחקן
3. ספורטאי
4. לא מכיר/ה
",2,,,,,,,,,0,5,5,4,267.3595274,,,,,,272.5674726,272.5776068,273.0630496,,,,,,,,,,,,273.0938731,,,,,,,,,,,,,267.3136524,267.3595274,267.3595274,267.3595274,272.5666078,2,5.1916428,None,,,,,645644,1,25,1,2025-10-14_20h06.21.286,מחקר פסיכולוגי,2024.1.4,None,2025-10-14 20h06.44.233393 +0300,
,,,,new | afrikan | normal,images2/image36.png,"האדם בתמונה הוא:
1. זמר 
2. שחקן
3.פוליטיקאי
4. לא מכיר/ה
",1,,,,,,,,,0,6,6,23,273.0938731,,,,,,274.2012073,274.2108913,274.696078,,,,,,,,,,,,274.7752568,,,,,,,,,,,,,273.0640969,273.0938731,273.0938731,273.0938731,274.2004157,1,1.103336,None,,,,,645644,1,25,1,2025-10-14_20h06.21.286,מחקר פסיכולוגי,2024.1.4,None,2025-10-14 20h06.44.233393 +0300,
,,,,new | caucasian | flipped,images2/image62.png,"האדם בתמונה הוא:
1. זמר 
2. שחקן
3. פוליטיקאי
4. לא מכיר/ה
",4,,,,,,,,,0,7,7,19,274.7752568,,,,,,276.0333549,276.0441547,276.5303867,,,,,,,,,,,,276.5989669,,,,,,,,,,,,,274.6969633,274.7752568,274.7752568,274.7752568,276.032466,4,1.2448005,None,,,,,645644,1,25,1,2025-10-14_20h06.21.286,מחקר פסיכולוגי,2024.1.4,None,2025-10-14 20h06.44.233393 +0300,
,,,,new | caucasian | flipped,images2/image45.png,"האדם בתמונה הוא:
1. זמר 
2. שחקן
3. ספורטאי
4. לא מכיר/ה
",2,,,,,,,,,0,8,8,32,276.5989669,,,,,,278.9001677,278.9108076,279.3965045,,,,,,,,,,,,279.4239788,,,,,,,,,,,,,276.5312483,276.5989669,276.5989669,276.5989669,278.8993666,2,2.285442,None,,,,,645644,1,25,1,2025-10-14_20h06.21.286,מחקר פסיכולוגי,2024.1.4,None,2025-10-14 20h06.44.233393 +0300,
,,,,old | caucasian | normal,images2/image10.png,"האדם בתמונה הוא:
1. זמר 
2. שחקן
3. ספורטאי
4. לא מכיר/ה
",2,,,,,,,,,0,9,9,9,279.4239788,,,,,,280.7838843,280.7940113,281.2800188,,,,,,,,,,,,281.3120238,,,,,,,,,,,,,279.3973442,279.4239788,279.4239788,279.4239788,280.7830609,2,1.3496854,None,,,,,645644,1,25,1,2025-10-14_20h06.21.286,מחקר פסיכולוגי,2024.1.4,None,2025-10-14 20h06.44.233393 +0300,
,,,,new | afrikan | normal,images2/image35.png,"האדם בתמונה הוא:
1. זמר 
2. שחקן
3. פוליטיקאי
4. לא מכיר/ה
",3,,,,,,,,,0,10,10,22,281.3120238,,,,,,283.3180361,283.3275768,283.8129148,,,,,,,,,,,,283.8461372,,,,,,,,,,,,,281.2814106,281.3120238,281.3120238,281.3120238,283.3171328,3,1.9995694,None,,,,,645644,1,25,1,2025-10-14_20h06.21.286,מחקר פסיכולוגי,2024.1.4,None,2025-10-14 20h06.44.233393 +0300,
,,,,new | afrikan | normal,images2/image34.png,"האדם בתמונה הוא:
1. זמר 
2. שחקן
3. פוליטיקאי
4. לא מכיר/ה
",2,,,,,,,,,0,11,11,21,283.8461372,,,,,,286.41646,286.4279159,286.9123541,,,,,,,,,,,,286.9417624,,,,,,,,,,,,,283.8137309,283.8461372,283.8461372,283.8461372,286.415591,2,2.5577141,None,,,,,645644,1,25,1,2025-10-14_20h06.21.286,מחקר פסיכולוגי,2024.1.4,None,2025-10-14 20h06.44.233393 +0300,
,,,,new | afrikan | flipped,images2/image39.png,"האדם בתמונה הוא:
1. זמר 
2. שחקן
3. עתונאי
4. לא מכיר/ה
",2,,,,,,,,,0,12,12,26,286.9417624,,,,,,288.2861628,288.2944114,288.7799719,,,,,,,,,,,,288.8090405,,,,,,,,,,,,,286.9131849,286.9417624,286.9417624,286.9417624,288.2853592,2,1.3376688,None,,,,,645644,1,25,1,2025-10-14_20h06.21.286,מחקר פסיכולוגי,2024.1.4,None,2025-10-14 20h06.44.233393 +0300,
,,,,old | caucasian | flipped,images2/image11.png,"האדם בתמונה הוא:
1. זמר 
2. שחקן
3. ספורטאי
4. לא מכיר/ה
",3,,,,,,,,,0,13,13,10,288.8090405,,,,,,293.2485852,293.26052,293.7473773,,,,,,,,,,,,293.8210502,,,,,,,,,,,,,288.78096,288.8090405,288.8090405,288.8090405,293.2478435,3,4.4294126,None,,,,,645644,1,25,1,2025-10-14_20h06.21.286,מחקר פסיכולוגי,2024.1.4,None,2025-10-14 20h06.44.233393 +0300,
,,,,new | caucasian | normal,images2/image44.png,"האדם בתמונה הוא:
1. זמר 
2. שחקן
3. ספורטאי
4. לא מכיר/ה
",2,,,,,,,,,0,14,14,31,293.8210502,,,,,,300.3841468,300.3938057,300.8797304,,,,,,,,,,,,300.9120347,,,,,,,,,,,,,293.7484827,293.8210502,293.8210502,293.8210502,300.383344,2,6.5585762,None,,,,,645644,1,25,1,2025-10-14_20h06.21.286,מחקר פסיכולוגי,2024.1.4,None,2025-10-14 20h06.44.233393 +0300,
,,,,new | caucasian | flipped,images2/image46.png,"האדם בתמונה הוא:
1. זמר 
2. שחקן
3. ספורטאי
4. לא מכיר/ה
",1,,,,,,,,,0,15,15,33,300.9120347,,,,,,303.2831939,303.293598,303.7797168,,,,,,,,,,,,303.8276598,,,,,,,,,,,,,300.8808476,300.9120347,300.9120347,300.9120347,303.2822814,1,2.360538,None,,,,,645644,1,25,1,2025-10-14_20h06.21.286,מחקר פסיכולוגי,2024.1.4,None,2025-10-14 20h06.44.233393 +0300,
,,,,new | afrikan | normal,images2/image33.png,"האדם בתמונה הוא:
1. זמר 
2. שחקן
3.פוליטיקאי
4. לא מכיר/ה
",2,,,,,,,,,0,16,16,20,303.8276598,,,,,,306.532654,306.5437171,307.0293265,,,,,,,,,,,,307.081618,,,,,,,,,,,,,303.7807961,303.8276598,303.8276598,303.8276598,306.5317185,2,2.6933311,None,,,,,645644,1,25,1,2025-10-14_20h06.21.286,מחקר פסיכולוגי,2024.1.4,None,2025-10-14 20h06.44.233393 +0300,
,,,,old | caucasian | flipped,images2/image15.png,"האדם בתמונה הוא:
1. זמר 
2. שחקן
3. ספורטאי
4. לא מכיר/ה
",2,,,,,,,,,0,17,17,14,307.081618,,,,,,311.8329177,311.8436283,312.3289801,,,,,,,,,,,,312.3883026,,,,,,,,,,,,,307.0303702,307.081618,307.081618,307.081618,311.8322338,3,4.7430384,None,,,,,645644,1,25,1,2025-10-14_20h06.21.286,מחקר פסיכולוגי,2024.1.4,None,2025-10-14 20h06.44.233393 +0300,
,,,,old | afrikan | flipped,images2/image7.png,"האדם בתמונה הוא:
1. זמר 
2. שחקן
3. ספורטאי
4. לא מכיר/ה
",1,,,,,,,,,0,18,18,6,312.3883026,,,,,,324.7326943,324.7434547,325.2286013,,,,,,,,,,,,325.2552004,,,,,,,,,,,,,312.3298608,312.3883026,312.3883026,312.3883026,324.7318994,3,12.3334318,None,,,,,645644,1,25,1,2025-10-14_20h06.21.286,מחקר פסיכולוגי,2024.1.4,None,2025-10-14 20h06.44.233393 +0300,
,,,,new | afrikan | flipped,images2/image40.png,"האדם בתמונה הוא:
1. זמר 
2. שחקן
3. עתונאי
4. לא מכיר/ה
",1,,,,,,,,,0,19,19,27,325.2552004,,,,,,341.3834594,341.3928048,341.8788896,,,,,,,,,,,,341.9139733,,,,,,,,,,,,,325.2293875,325.2552004,325.2552004,325.2552004,341.3825764,1,16.1177845,None,,,,,645644,1,25,1,2025-10-14_20h06.21.286,מחקר פסיכולוגי,2024.1.4,None,2025-10-14 20h06.44.233393 +0300,
,,,,old | afrikan | normal,images2/image20.png,"האדם בתמונה הוא:
1. זמר 
2. שחקן
3. ספורטאי
4. לא מכיר/ה
",4,,,,,,,,,0,20,20,17,341.9139733,,,,,,347.5839799,347.5930565,348.0795508,,,,,,,,,,,,348.120722,,,,,,,,,,,,,341.8798379,341.9139733,341.9139733,341.9139733,347.5832524,4,5.6555722,None,,,,,645644,1,25,1,2025-10-14_20h06.21.286,מחקר פסיכולוגי,2024.1.4,None,2025-10-14 20h06.44.233393 +0300,
,,,,old | afrikan | normal,images2/image1.png,"האדם בתמונה הוא:
1. זמר
2. שחקן
3. ספורטאי
4. לא מכיר/ה
",1,,,,,,,,,0,21,21,0,348.120722,,,,,,349.3825118,349.3927874,349.8790935,,,,,,,,,,,,349.9416686,,,,,,,,,,,,,348.0804814,348.120722,348.120722,348.120722,349.3815789,1,1.2557318,None,,,,,645644,1,25,1,2025-10-14_20h06.21.286,מחקר פסיכולוגי,2024.1.4,None,2025-10-14 20h06.44.233393 +0300,
,,,,old | afrikan | flipped,images2/image8.png,"האדם בתמונה הוא:
1. זמר 
2. שחקן
3. ספורטאי
4. לא מכיר/ה
",2,,,,,,,,,0,22,22,7,349.9416686,,,,,,356.6982371,356.7094866,357.1948164,,,,,,,,,,,,357.2261701,,,,,,,,,,,,,349.8800335,349.9416686,349.9416686,349.9416686,356.6975021,2,6.7429983,None,,,,,645644,1,25,1,2025-10-14_20h06.21.286,מחקר פסיכולוגי,2024.1.4,None,2025-10-14 20h06.44.233393 +0300,
,,,,new | caucasian | flipped,images2/image41.png,"האדם בתמונה הוא:
1. זמר 
2. שחקן
3. ספורטאי
4. לא מכיר/ה
",2,,,,,,,,,0,23,23,28,357.2261701,,,,,,361.6494906,361.6594627,362.1454552,,,,,,,,,,,,362.1737249,,,,,,,,,,,,,357.1955086,357.2261701,357.2261701,357.2261701,361.6480143,2,4.4143862,None,,,,,645644,1,25,1,2025-10-14_20h06.21.286,מחקר פסיכולוגי,2024.1.4,None,2025-10-14 20h06.44.233393 +0300,
,,,,new | caucasian | normal,images2/image43.png,"האדם בתמונה הוא:
1. זמר 
2. שחקן
3. ספורטאי
4. לא מכיר/ה
",1,,,,,,,,,0,24,24,30,362.1737249,,,,,,369.4493874,369.4593136,369.9444649,,,,,,,,,,,,369.9695444,,,,,,,,,,,,,362.14651,362.1737249,362.1737249,362.1737249,369.4486073,1,7.2616777,None,,,,,645644,1,25,1,2025-10-14_20h06.21.286,מחקר פסיכולוגי,2024.1.4,None,2025-10-14 20h06.44.233393 +0300,
,,,,new | caucasian | flipped,images2/image47.png,"האדם בתמונה הוא:
1. זמר 
2. שחקן
3. ספורטאי
4. לא מכיר/ה
",1,,,,,,,,,0,25,25,34,369.9695444,,,,,,372.1344634,372.1427594,372.6275473,,,,,,,,,,,,372.65389,,,,,,,,,,,,,369.9452005,369.9695444,369.9695444,369.9695444,372.1337738,1,2.1616009,None,,,,,645644,1,25,1,2025-10-14_20h06.21.286,מחקר פסיכולוגי,2024.1.4,None,2025-10-14 20h06.44.233393 +0300,
,,,,old | caucasian | flipped,images2/image9.png,"האדם בתמונה הוא:
1. זמר 
2. שחקן
3. ספורטאי
4. לא מכיר/ה
",2,,,,,,,,,0,26,26,8,372.65389,,,,,,373.7978892,373.8090918,374.2950344,,,,,,,,,,,,374.3269333,,,,,,,,,,,,,372.6282608,372.65389,372.65389,372.65389,373.7965076,2,1.1315981,None,,,,,645644,1,25,1,2025-10-14_20h06.21.286,מחקר פסיכולוגי,2024.1.4,None,2025-10-14 20h06.44.233393 +0300,
,,,,old | caucasian | normal,images2/image14.png,"האדם בתמונה הוא:
1. זמר 
2. שחקן
3. ספורטאי
4. לא מכיר/ה
",2,,,,,,,,,0,27,27,13,374.3269333,,,,,,376.3985868,376.4090802,376.8946812,,,,,,,,,,,,376.9262977,,,,,,,,,,,,,374.2960317,374.3269333,374.3269333,374.3269333,376.3972351,2,2.0574869,None,,,,,645644,1,25,1,2025-10-14_20h06.21.286,מחקר פסיכולוגי,2024.1.4,None,2025-10-14 20h06.44.233393 +0300,
,,,,old | afrikan | flipped,images2/image2.png,"האדם בתמונה הוא:
1. זמר 
2. שחקן
3. ספורטאי
4. לא מכיר/ה
",1,,,,,,,,,0,28,28,1,376.9262977,,,,,,382.7136866,382.7256729,383.2105691,,,,,,,,,,,,383.2360977,,,,,,,,,,,,,376.8956273,376.9262977,376.9262977,376.9262977,382.7130086,4,5.7836142,None,,,,,645644,1,25,1,2025-10-14_20h06.21.286,מחקר פסיכולוגי,2024.1.4,None,2025-10-14 20h06.44.233393 +0300,
,,,,new | afrikan | flipped,images2/image37.png,"האדם בתמונה הוא:
1. זמר 
2. שחקן
3. עתונאי
4. לא מכיר/ה
",1,,,,,,,,,0,29,29,24,383.2360977,,,,,,388.3323746,388.3426009,388.8270377,,,,,,,,,,,,388.8649898,,,,,,,,,,,,,383.2112133,383.2360977,383.2360977,383.2360977,388.331389,1,5.0791716,None,,,,,645644,1,25,1,2025-10-14_20h06.21.286,מחקר פסיכולוגי,2024.1.4,None,2025-10-14 20h06.44.233393 +0300,
,,,,old | caucasian | flipped,images2/image13.png,"האדם בתמונה הוא:
1. זמר 
2. שחקן
3. ספורטאי
4. לא מכיר/ה
",2,,,,,,,,,0,30,30,12,388.8649898,,,,,,390.7809747,390.7921252,391.2770542,,,,,,,,,,,,391.3056861,,,,,,,,,,,,,388.8277643,388.8649898,388.8649898,388.8649898,390.7802094,2,1.9040415,None,,,,,645644,1,25,1,2025-10-14_20h06.21.286,מחקר פסיכולוגי,2024.1.4,None,2025-10-14 20h06.44.233393 +0300,
,,,,old | caucasian | normal,images2/image12.png,"האדם בתמונה הוא:
1. זמר 
2. שחקן
3. ספורטאי
4. לא מכיר/ה
",2,,,,,,,,,0,31,31,11,391.3056861,,,,,,392.3978148,392.4086148,392.8936881,,,,,,,,,,,,392.9336074,,,,,,,,,,,,,391.2777997,391.3056861,391.3056861,391.3056861,392.3970885,2,1.0762033,None,,,,,645644,1,25,1,2025-10-14_20h06.21.286,מחקר פסיכולוגי,2024.1.4,None,2025-10-14 20h06.44.233393 +0300,
,,,,old | caucasian | normal,images2/image16.png,"האדם בתמונה הוא:
1. זמר 
2. שחקן
3. ספורטאי
4. לא מכיר/ה
",2,,,,,,,,,0,32,32,15,392.9336074,,,,,,393.8140742,393.8253818,394.3101311,,,,,,,,,,,,394.3768655,,,,,,,,,,,,,392.8943904,392.9336074,392.9336074,392.9336074,393.8133343,2,0.8634827,None,,,,,645644,1,25,1,2025-10-14_20h06.21.286,מחקר פסיכולוגי,2024.1.4,None,2025-10-14 20h06.44.233393 +0300,
,,,,old | afrikan | flipped,images2/image18.png,"האדם בתמונה הוא:
1. זמר 
2. שחקן
3. ספורטאי
4. לא מכיר/ה
",4,,,,,,,,,0,33,33,16,394.3768655,,,,,,395.6489752,395.65873,396.1451168,,,,,,,,,,,,396.1772503,,,,,,,,,,,,,394.310737,394.3768655,394.3768655,394.3768655,395.6480489,4,1.2603744,None,,,,,645644,1,25,1,2025-10-14_20h06.21.286,מחקר פסיכולוגי,2024.1.4,None,2025-10-14 20h06.44.233393 +0300,
,,,,old | afrikan | normal,images2/image6.png,"האדם בתמונה הוא:
1. זמר 
2. שחקן
3. ספורטאי
4. לא מכיר/ה
",2,,,,,,,,,0,34,34,5,396.1772503,,,,,,398.4485956,398.4588198,398.9444399,,,,,,,,,,,,398.9743553,,,,,,,,,,,,,396.1460865,396.1772503,396.1772503,396.1772503,398.4477634,1,2.2529353,None,,,,,645644,1,25,1,2025-10-14_20h06.21.286,מחקר פסיכולוגי,2024.1.4,None,2025-10-14 20h06.44.233393 +0300,
,,,,new | caucasian | normal,images2/image48.png,"האדם בתמונה הוא:
1. זמר 
2. שחקן
3. ספורטאי
4. לא מכיר/ה
",2,,,,,,,,,0,35,35,35,398.9743553,,,,,,403.0971699,403.1086925,403.5935209,,,,,,,,,,,,403.6085561,,,,,,,,,,,,,398.9454344,398.9743553,398.9743553,398.9743553,403.0963518,2,4.1038342,None,,,,,645644,1,25,1,2025-10-14_20h06.21.286,מחקר פסיכולוגי,2024.1.4,None,2025-10-14 20h06.44.233393 +0300,
,,,,,,,,,,,,,,,,,,,,,,,,,,,,,,,,,,,,,,,,,,,,,,,,,,,,,,,,,,,,,403.5937012,403.6085561,406.6094304,406.5941894,645644,1,25,1,2025-10-14_20h06.21.286,מחקר פסיכולוגי,2024.1.4,None,2025-10-14 20h06.44.233393 +0300,
,,,,,,,,,,old | caucasian | flipped,old | caucasian | normal,new | caucasian | flipped,new | caucasian | normal,old | afrikan | flipped,old | afrikan | normal,new | afrikan | flipped,new | afrikan | normal,,sum,,,,,,,,,,,,,,,,,,,,,,,,,,,,,,,,,,,,,,,,,,,,,,,,,,,,,,,
,,,,,,,,,,4,4,4,4,3,3,4,4,,30,,,,,,,,,,,,,,,,,,,,,,,,,,,,,,,,,,,,,,,,,,,,,,,,,,,,,,,
,,,,,,,,,,,,,,,,,,,,,,,,,,,,,,,,,,,,,,,,,,,,,,,,,,,,,,,,,,,,,,,,,,,,,,,,,,
,,,,,,,,,sum correct,27,,,,,,,,,,,,,,,,,,,,,,,,,,,,,,,,,,,,,,,,,,,,,,,,,,,,,,,,,,,,,,,,
,,,,,,,,,sum not 4,30,,,,,,,,,,,,,,,,,,,,,,,,,,,,,,,,,,,,,,,,,,,,,,,,,,,,,,,,,,,,,,,,
