faceTesting,oldnew,race,isFamous,,faceAsking,options,correctOption,learningLoop.thisRepN,learningLoop.thisTrialN,learningLoop.thisN,learningLoop.thisIndex,testingLoop.thisRepN,testingLoop.thisTrialN,testingLoop.thisN,testingLoop.thisIndex,familiarnessLoop.thisRepN,familiarnessLoop.thisTrialN,familiarnessLoop.thisN,familiarnessLoop.thisIndex,thisRow.t,notes,haskama_2.started,haskama.started,key_resp.started,haskama_2.stopped,Blank500.started,image.started,Blank500.stopped,insLearning.started,insLearning_img.started,key_resp_2.started,insLearning.stopped,learningPic.started,facestudypic.started,learningPic.stopped,insTest.started,insTest_img.started,key_resp_4.started,insTest.stopped,image.stopped,testingPic.started,orientation,facetestpic.started,testkeys.started,testingPic.stopped,testkeys.keys,testkeys.rt,testkeys.duration,insFamiliarness.started,insFamiliarness_img.started,key_resp_5.started,insFamiliarness.stopped,familiarnessPic.started,familiarnessPic_img.started,familiarnessKeys.started,text.started,familiarnessPic.stopped,familiarnessKeys.keys,familiarnessKeys.rt,familiarnessKeys.duration,thankYou.started,text_2.started,text_2.stopped,thankYou.stopped,participant,session,age,"female=""1"""," male=""2""",date,expName,psychopyVersion,frameRate,expStart
,,,,,,,,,,,,,,,,,,,,,,0.0036927,0.0487638,0.0487638,9.5013302,,,,,,,,,,,,,,,,,,,,,,,,,,,,,,,,,,,,,,,,672451,2,27,2,2025-06-13_13h37.41.762,מחקר פסיכולוגי,2024.1.4,None,2025-06-13 13h38.25.864935 +0300,
,,,,,,,,,,,,,,,,,,,,,,,,,,9.5013798,9.5056646,10.0021605,,,,,,,,,,,,,,,,,,,,,,,,,,,,,,,,,,,,,672451,2,27,2,2025-06-13_13h37.41.762,מחקר פסיכולוגי,2024.1.4,None,2025-06-13 13h38.25.864935 +0300,
,,,,,,,,,,,,,,,,,,,,,,,,,,,,,10.0021925,10.0217351,10.0217351,13.6404583,,,,,,,,,,,,,,,,,,,,,,,,,,,,,,,,,672451,2,27,2,2025-06-13_13h37.41.762,מחקר פסיכולוגי,2024.1.4,None,2025-06-13 13h38.25.864935 +0300,
,,,,,,,,,,,,,,,,,,,,91.2257499,,,,,,93.1508534,93.1659098,93.6499312,,,,,91.1515509,91.2257499,93.150796,93.6500739,93.6701083,93.6701083,96.4718795,,,,,,,,,,,,,,,,,,,,,,,,,,672451,2,27,2,2025-06-13_13h37.41.762,מחקר פסיכולוגי,2024.1.4,None,2025-06-13 13h38.25.864935 +0300,
,,,,,,,,,,,,,,,,,,,,,,,,,,96.4719452,96.4821018,96.9671908,,,,,,,,,,,,97.0163443,,,,,,,,,,,,,,,,,,,,,,,,,672451,2,27,2,2025-06-13_13h37.41.762,מחקר פסיכולוגי,2024.1.4,None,2025-06-13 13h38.25.864935 +0300,
images2/image46.png,old,caucasian,famous,,,,,,,,,0,0,0,45,,,,,97.0163443,,,,,,104.0876147,104.0921332,104.5841837,,,,,,,,,,,,104.6008742,96.9995049,flipped,97.0163443,97.0163443,104.0831555,right,7.0361401,None,,,,,,,,,,,,,,,,,672451,2,27,2,2025-06-13_13h37.41.762,מחקר פסיכולוגי,2024.1.4,None,2025-06-13 13h38.25.864935 +0300,
images2/image37.png,old,afrikan,famous,,,,,,,,,0,1,1,36,,,,,104.6008742,,,,,,106.1050261,106.1156987,106.6014782,,,,,,,,,,,,106.6224289,104.5849601,normal,104.6008742,104.6008742,106.1040707,right,1.4921938,None,,,,,,,,,,,,,,,,,672451,2,27,2,2025-06-13_13h37.41.762,מחקר פסיכולוגי,2024.1.4,None,2025-06-13 13h38.25.864935 +0300,
images2/image58.png,old,caucasian,unknown,,,,,,,,,0,2,2,57,,,,,106.6224289,,,,,,111.9877844,111.9987425,112.48531,,,,,,,,,,,,112.5037566,106.602617,flipped,106.6224289,106.6224289,111.9868624,right,5.359991,None,,,,,,,,,,,,,,,,,672451,2,27,2,2025-06-13_13h37.41.762,מחקר פסיכולוגי,2024.1.4,None,2025-06-13 13h38.25.864935 +0300,
images2/image57.png,old,caucasian,unknown,,,,,,,,,0,3,3,56,,,,,112.5037566,,,,,,114.1042635,114.1154401,114.6008258,,,,,,,,,,,,114.6564969,112.4864334,normal,112.5037566,112.5037566,114.1033678,right,1.587504,None,,,,,,,,,,,,,,,,,672451,2,27,2,2025-06-13_13h37.41.762,מחקר פסיכולוגי,2024.1.4,None,2025-06-13 13h38.25.864935 +0300,
images2/image21.png,new,afrikan,unknown,,,,,,,,,0,4,4,20,,,,,114.6564969,,,,,,119.086606,119.0984761,119.5830915,,,,,,,,,,,,119.6334899,114.6019025,flipped,114.6564969,114.6564969,119.0857747,right,4.4188961,None,,,,,,,,,,,,,,,,,672451,2,27,2,2025-06-13_13h37.41.762,מחקר פסיכולוגי,2024.1.4,None,2025-06-13 13h38.25.864935 +0300,
images2/image18.png,new,afrikan,unknown,,,,,,,,,0,5,5,17,,,,,119.6334899,,,,,,120.5526651,120.5651439,121.0489895,,,,,,,,,,,,121.0671773,119.5839025,normal,119.6334899,119.6334899,120.5519121,left,0.903576,None,,,,,,,,,,,,,,,,,672451,2,27,2,2025-06-13_13h37.41.762,מחקר פסיכולוגי,2024.1.4,None,2025-06-13 13h38.25.864935 +0300,
images2/image61.png,old,caucasian,unknown,,,,,,,,,0,6,6,60,,,,,121.0671773,,,,,,121.922465,121.9317975,122.4164198,,,,,,,,,,,,122.4532682,121.0494296,normal,121.0671773,121.0671773,121.9214707,right,0.8505128,None,,,,,,,,,,,,,,,,,672451,2,27,2,2025-06-13_13h37.41.762,מחקר פסיכולוגי,2024.1.4,None,2025-06-13 13h38.25.864935 +0300,
images2/image15.png,new,caucasian,famous,,,,,,,,,0,7,7,14,,,,,122.4532682,,,,,,123.4546774,123.4652078,123.9495764,,,,,,,,,,,,123.9710933,122.4171415,normal,122.4532682,122.4532682,123.4536244,left,0.9952301,None,,,,,,,,,,,,,,,,,672451,2,27,2,2025-06-13_13h37.41.762,מחקר פסיכולוגי,2024.1.4,None,2025-06-13 13h38.25.864935 +0300,
images2/image38.png,old,afrikan,famous,,,,,,,,,0,8,8,37,,,,,123.9710933,,,,,,124.9023347,124.9149145,125.4014809,,,,,,,,,,,,125.4422948,123.9503148,flipped,123.9710933,123.9710933,124.9016156,right,0.9164424,None,,,,,,,,,,,,,,,,,672451,2,27,2,2025-06-13_13h37.41.762,מחקר פסיכולוגי,2024.1.4,None,2025-06-13 13h38.25.864935 +0300,
images2/image17.png,new,afrikan,unknown,,,,,,,,,0,9,9,16,,,,,125.4422948,,,,,,126.6538031,126.6651792,127.1492184,,,,,,,,,,,,127.1917833,125.4025599,flipped,125.4422948,125.4422948,126.6529627,right,1.1939456,None,,,,,,,,,,,,,,,,,672451,2,27,2,2025-06-13_13h37.41.762,מחקר פסיכולוגי,2024.1.4,None,2025-06-13 13h38.25.864935 +0300,
images2/image9.png,new,caucasian,famous,,,,,,,,,0,10,10,8,,,,,127.1917833,,,,,,128.8543239,128.8652911,129.3506488,,,,,,,,,,,,129.4047412,127.1498225,flipped,127.1917833,127.1917833,128.8533673,left,1.6505374,None,,,,,,,,,,,,,,,,,672451,2,27,2,2025-06-13_13h37.41.762,מחקר פסיכולוגי,2024.1.4,None,2025-06-13 13h38.25.864935 +0300,
images2/image4.png,new,afrikan,famous,,,,,,,,,0,11,11,3,,,,,129.4047412,,,,,,130.1894125,130.1985918,130.6832838,,,,,,,,,,,,130.7115734,129.3516252,normal,129.4047412,129.4047412,130.1883711,left,0.7758566,None,,,,,,,,,,,,,,,,,672451,2,27,2,2025-06-13_13h37.41.762,מחקר פסיכולוגי,2024.1.4,None,2025-06-13 13h38.25.864935 +0300,
images2/image45.png,old,caucasian,famous,,,,,,,,,0,12,12,44,,,,,130.7115734,,,,,,131.4210941,131.4322827,131.9173215,,,,,,,,,,,,131.9652409,130.6838784,normal,130.7115734,130.7115734,131.4200611,right,0.6905946,None,,,,,,,,,,,,,,,,,672451,2,27,2,2025-06-13_13h37.41.762,מחקר פסיכולוגי,2024.1.4,None,2025-06-13 13h38.25.864935 +0300,
images2/image31.png,new,caucasian,unknown,,,,,,,,,0,13,13,30,,,,,131.9652409,,,,,,133.2709172,133.2815512,133.7675917,,,,,,,,,,,,133.8215672,131.9184095,normal,131.9652409,131.9652409,133.2699714,left,1.2925051,None,,,,,,,,,,,,,,,,,672451,2,27,2,2025-06-13_13h37.41.762,מחקר פסיכולוגי,2024.1.4,None,2025-06-13 13h38.25.864935 +0300,
images2/image5.png,new,afrikan,famous,,,,,,,,,0,14,14,4,,,,,133.8215672,,,,,,134.9042193,134.9150925,135.40056,,,,,,,,,,,,135.4913479,133.7686544,flipped,133.8215672,133.8215672,134.9032807,left,1.0761816,None,,,,,,,,,,,,,,,,,672451,2,27,2,2025-06-13_13h37.41.762,מחקר פסיכולוגי,2024.1.4,None,2025-06-13 13h38.25.864935 +0300,
images2/image62.png,old,caucasian,unknown,,,,,,,,,0,15,15,61,,,,,135.4913479,,,,,,136.971051,136.9817771,137.4675731,,,,,,,,,,,,137.5321743,135.4016143,flipped,135.4913479,135.4913479,136.9702359,right,1.4747688,None,,,,,,,,,,,,,,,,,672451,2,27,2,2025-06-13_13h37.41.762,מחקר פסיכולוגי,2024.1.4,None,2025-06-13 13h38.25.864935 +0300,
images2/image39.png,old,afrikan,famous,,,,,,,,,0,16,16,38,,,,,137.5321743,,,,,,138.1210966,138.1315331,138.6170331,,,,,,,,,,,,138.6581498,137.4685401,normal,137.5321743,137.5321743,138.1203167,right,0.5853632,None,,,,,,,,,,,,,,,,,672451,2,27,2,2025-06-13_13h37.41.762,מחקר פסיכולוגי,2024.1.4,None,2025-06-13 13h38.25.864935 +0300,
images2/image1.png,new,afrikan,famous,,,,,,,,,0,17,17,0,,,,,138.6581498,,,,,,139.4701694,139.4814518,139.9679629,,,,,,,,,,,,139.9902146,138.6178542,flipped,138.6581498,138.6581498,139.4694668,left,0.8075427,None,,,,,,,,,,,,,,,,,672451,2,27,2,2025-06-13_13h37.41.762,מחקר פסיכולוגי,2024.1.4,None,2025-06-13 13h38.25.864935 +0300,
images2/image50.png,old,afrikan,unknown,,,,,,,,,0,18,18,49,,,,,139.9902146,,,,,,140.9712954,140.9813673,141.4676992,,,,,,,,,,,,141.4880599,139.9691455,flipped,139.9902146,139.9902146,140.9702402,right,0.9628296,None,,,,,,,,,,,,,,,,,672451,2,27,2,2025-06-13_13h37.41.762,מחקר פסיכולוגי,2024.1.4,None,2025-06-13 13h38.25.864935 +0300,
images2/image35.png,old,afrikan,famous,,,,,,,,,0,19,19,34,,,,,141.4880599,,,,,,142.1040138,142.1149393,142.6003797,,,,,,,,,,,,142.623443,141.4685931,normal,141.4880599,141.4880599,142.1030492,right,0.598483,None,,,,,,,,,,,,,,,,,672451,2,27,2,2025-06-13_13h37.41.762,מחקר פסיכולוגי,2024.1.4,None,2025-06-13 13h38.25.864935 +0300,
images2/image41.png,old,caucasian,famous,,,,,,,,,0,20,20,40,,,,,142.623443,,,,,,143.2533113,143.2648612,143.7506732,,,,,,,,,,,,143.8206494,142.6012885,normal,142.623443,142.623443,143.2523997,right,0.6120604,None,,,,,,,,,,,,,,,,,672451,2,27,2,2025-06-13_13h37.41.762,מחקר פסיכולוגי,2024.1.4,None,2025-06-13 13h38.25.864935 +0300,
images2/image59.png,old,caucasian,unknown,,,,,,,,,0,21,21,58,,,,,143.8206494,,,,,,144.7546541,144.7647924,145.2510475,,,,,,,,,,,,145.3270046,143.7516991,normal,143.8206494,143.8206494,144.7536865,right,0.9162426,None,,,,,,,,,,,,,,,,,672451,2,27,2,2025-06-13_13h37.41.762,מחקר פסיכולוגי,2024.1.4,None,2025-06-13 13h38.25.864935 +0300,
images2/image60.png,old,caucasian,unknown,,,,,,,,,0,22,22,59,,,,,145.3270046,,,,,,150.9202378,150.9314187,151.4168748,,,,,,,,,,,,151.4720852,145.2520775,flipped,145.3270046,145.3270046,150.9193942,right,5.5878569,None,,,,,,,,,,,,,,,,,672451,2,27,2,2025-06-13_13h37.41.762,מחקר פסיכולוגי,2024.1.4,None,2025-06-13 13h38.25.864935 +0300,
images2/image56.png,old,afrikan,unknown,,,,,,,,,0,23,23,55,,,,,151.4720852,,,,,,152.3705152,152.3816984,152.8672015,,,,,,,,,,,,152.9127647,151.4177409,flipped,151.4720852,151.4720852,152.3696212,left,0.8919045,None,,,,,,,,,,,,,,,,,672451,2,27,2,2025-06-13_13h37.41.762,מחקר פסיכולוגי,2024.1.4,None,2025-06-13 13h38.25.864935 +0300,
images2/image14.png,new,caucasian,famous,,,,,,,,,0,24,24,13,,,,,152.9127647,,,,,,153.9526357,153.9647307,154.4508764,,,,,,,,,,,,154.5064727,152.8680587,flipped,152.9127647,152.9127647,153.9518907,left,1.0221617,None,,,,,,,,,,,,,,,,,672451,2,27,2,2025-06-13_13h37.41.762,מחקר פסיכולוגי,2024.1.4,None,2025-06-13 13h38.25.864935 +0300,
images2/image26.png,new,caucasian,unknown,,,,,,,,,0,25,25,25,,,,,154.5064727,,,,,,156.7378325,156.7478225,157.2338988,,,,,,,,,,,,157.2528559,154.4519273,flipped,154.5064727,154.5064727,156.7368621,left,2.2155353,None,,,,,,,,,,,,,,,,,672451,2,27,2,2025-06-13_13h37.41.762,מחקר פסיכולוגי,2024.1.4,None,2025-06-13 13h38.25.864935 +0300,
images2/image40.png,old,afrikan,famous,,,,,,,,,0,26,26,39,,,,,157.2528559,,,,,,157.9860961,157.9977588,158.4836796,,,,,,,,,,,,158.5048943,157.2347697,normal,157.2528559,157.2528559,157.9853388,right,0.7248711,None,,,,,,,,,,,,,,,,,672451,2,27,2,2025-06-13_13h37.41.762,מחקר פסיכולוגי,2024.1.4,None,2025-06-13 13h38.25.864935 +0300,
images2/image54.png,old,afrikan,unknown,,,,,,,,,0,27,27,53,,,,,158.5048943,,,,,,159.369548,159.3809951,159.8668097,,,,,,,,,,,,159.9488414,158.4846499,normal,158.5048943,158.5048943,159.3686858,right,0.8557601,None,,,,,,,,,,,,,,,,,672451,2,27,2,2025-06-13_13h37.41.762,מחקר פסיכולוגי,2024.1.4,None,2025-06-13 13h38.25.864935 +0300,
images2/image32.png,new,caucasian,unknown,,,,,,,,,0,28,28,31,,,,,159.9488414,,,,,,162.2026412,162.2149605,162.6996189,,,,,,,,,,,,162.7353915,159.867488,flipped,159.9488414,159.9488414,162.201849,left,2.2360904,None,,,,,,,,,,,,,,,,,672451,2,27,2,2025-06-13_13h37.41.762,מחקר פסיכולוגי,2024.1.4,None,2025-06-13 13h38.25.864935 +0300,
images2/image12.png,new,caucasian,famous,,,,,,,,,0,29,29,11,,,,,162.7353915,,,,,,163.5849402,163.5976434,164.0842994,,,,,,,,,,,,164.1046314,162.7005857,normal,162.7353915,162.7353915,163.5845283,left,0.8355206,None,,,,,,,,,,,,,,,,,672451,2,27,2,2025-06-13_13h37.41.762,מחקר פסיכולוגי,2024.1.4,None,2025-06-13 13h38.25.864935 +0300,
images2/image34.png,old,afrikan,famous,,,,,,,,,0,30,30,33,,,,,164.1046314,,,,,,164.8705862,164.8810242,165.3662157,,,,,,,,,,,,165.3868242,164.0855205,flipped,164.1046314,164.1046314,164.8696581,right,0.7546503,None,,,,,,,,,,,,,,,,,672451,2,27,2,2025-06-13_13h37.41.762,מחקר פסיכולוגי,2024.1.4,None,2025-06-13 13h38.25.864935 +0300,
images2/image55.png,old,afrikan,unknown,,,,,,,,,0,31,31,54,,,,,165.3868242,,,,,,167.0524423,167.0646057,167.550018,,,,,,,,,,,,167.6149722,165.3668923,flipped,165.3868242,165.3868242,167.0516454,right,1.6477554,None,,,,,,,,,,,,,,,,,672451,2,27,2,2025-06-13_13h37.41.762,מחקר פסיכולוגי,2024.1.4,None,2025-06-13 13h38.25.864935 +0300,
images2/image6.png,new,afrikan,famous,,,,,,,,,0,32,32,5,,,,,167.6149722,,,,,,168.6028722,168.6145955,169.1003856,,,,,,,,,,,,169.1181861,167.5509029,normal,167.6149722,167.6149722,168.6020555,left,0.9692689,None,,,,,,,,,,,,,,,,,672451,2,27,2,2025-06-13_13h37.41.762,מחקר פסיכולוגי,2024.1.4,None,2025-06-13 13h38.25.864935 +0300,
images2/image47.png,old,caucasian,famous,,,,,,,,,0,33,33,46,,,,,169.1181861,,,,,,169.8531869,169.864504,170.3500667,,,,,,,,,,,,170.4042833,169.101376,normal,169.1181861,169.1181861,169.8523809,right,0.7231836,None,,,,,,,,,,,,,,,,,672451,2,27,2,2025-06-13_13h37.41.762,מחקר פסיכולוגי,2024.1.4,None,2025-06-13 13h38.25.864935 +0300,
images2/image27.png,new,caucasian,unknown,,,,,,,,,0,34,34,26,,,,,170.4042833,,,,,,172.3520386,172.3646236,172.8500858,,,,,,,,,,,,172.8881231,170.3509234,flipped,170.4042833,170.4042833,172.3512967,left,1.9303842,None,,,,,,,,,,,,,,,,,672451,2,27,2,2025-06-13_13h37.41.762,מחקר פסיכולוגי,2024.1.4,None,2025-06-13 13h38.25.864935 +0300,
images2/image48.png,old,caucasian,famous,,,,,,,,,0,35,35,47,,,,,172.8881231,,,,,,173.720193,173.7310842,174.217306,,,,,,,,,,,,174.2608079,172.8512083,flipped,172.8881231,172.8881231,173.7193177,right,0.8205016,None,,,,,,,,,,,,,,,,,672451,2,27,2,2025-06-13_13h37.41.762,מחקר פסיכולוגי,2024.1.4,None,2025-06-13 13h38.25.864935 +0300,
images2/image64.png,old,caucasian,unknown,,,,,,,,,0,36,36,63,,,,,174.2608079,,,,,,175.9365758,175.9476492,176.433181,,,,,,,,,,,,176.4723722,174.2183891,flipped,174.2608079,174.2608079,175.9356887,right,1.6580788,None,,,,,,,,,,,,,,,,,672451,2,27,2,2025-06-13_13h37.41.762,מחקר פסיכולוגי,2024.1.4,None,2025-06-13 13h38.25.864935 +0300,
images2/image52.png,old,afrikan,unknown,,,,,,,,,0,37,37,51,,,,,176.4723722,,,,,,177.1873789,177.1975154,177.683382,,,,,,,,,,,,177.7234641,176.4340624,normal,176.4723722,176.4723722,177.1863891,right,0.7019192,None,,,,,,,,,,,,,,,,,672451,2,27,2,2025-06-13_13h37.41.762,מחקר פסיכולוגי,2024.1.4,None,2025-06-13 13h38.25.864935 +0300,
images2/image3.png,new,afrikan,famous,,,,,,,,,0,38,38,2,,,,,177.7234641,,,,,,178.4696284,178.4809531,178.9665745,,,,,,,,,,,,179.0189823,177.6843604,normal,177.7234641,177.7234641,178.4687688,left,0.7300417,None,,,,,,,,,,,,,,,,,672451,2,27,2,2025-06-13_13h37.41.762,מחקר פסיכולוגי,2024.1.4,None,2025-06-13 13h38.25.864935 +0300,
images2/image24.png,new,afrikan,unknown,,,,,,,,,0,39,39,23,,,,,179.0189823,,,,,,181.1195905,181.1310929,181.6173649,,,,,,,,,,,,181.6776803,178.967418,flipped,179.0189823,179.0189823,181.1187474,left,2.0878283,None,,,,,,,,,,,,,,,,,672451,2,27,2,2025-06-13_13h37.41.762,מחקר פסיכולוגי,2024.1.4,None,2025-06-13 13h38.25.864935 +0300,
images2/image19.png,new,afrikan,unknown,,,,,,,,,0,40,40,18,,,,,181.6776803,,,,,,182.5705283,182.5811631,183.0663211,,,,,,,,,,,,183.1003993,181.6183914,normal,181.6776803,181.6776803,182.5695346,right,0.8807247,None,,,,,,,,,,,,,,,,,672451,2,27,2,2025-06-13_13h37.41.762,מחקר פסיכולוגי,2024.1.4,None,2025-06-13 13h38.25.864935 +0300,
images2/image29.png,new,caucasian,unknown,,,,,,,,,0,41,41,28,,,,,183.1003993,,,,,,185.1354874,185.1476522,185.6329575,,,,,,,,,,,,185.7229406,183.0673723,normal,183.1003993,183.1003993,185.1347306,left,2.0213825,None,,,,,,,,,,,,,,,,,672451,2,27,2,2025-06-13_13h37.41.762,מחקר פסיכולוגי,2024.1.4,None,2025-06-13 13h38.25.864935 +0300,
images2/image28.png,new,caucasian,unknown,,,,,,,,,0,42,42,27,,,,,185.7229406,,,,,,187.9852229,187.9973249,188.4828824,,,,,,,,,,,,188.5420024,185.6338993,flipped,185.7229406,185.7229406,187.9846947,left,2.2532404,None,,,,,,,,,,,,,,,,,672451,2,27,2,2025-06-13_13h37.41.762,מחקר פסיכולוגי,2024.1.4,None,2025-06-13 13h38.25.864935 +0300,
images2/image10.png,new,caucasian,famous,,,,,,,,,0,43,43,9,,,,,188.5420024,,,,,,189.7357559,189.7473442,190.2330826,,,,,,,,,,,,190.2900467,188.4838316,flipped,188.5420024,188.5420024,189.7350864,left,1.1870218,None,,,,,,,,,,,,,,,,,672451,2,27,2,2025-06-13_13h37.41.762,מחקר פסיכולוגי,2024.1.4,None,2025-06-13 13h38.25.864935 +0300,
images2/image20.png,new,afrikan,unknown,,,,,,,,,0,44,44,19,,,,,190.2900467,,,,,,191.3529353,191.3640139,191.8501257,,,,,,,,,,,,191.8724632,190.2341589,normal,190.2900467,190.2900467,191.3521317,left,1.0451251,None,,,,,,,,,,,,,,,,,672451,2,27,2,2025-06-13_13h37.41.762,מחקר פסיכולוגי,2024.1.4,None,2025-06-13 13h38.25.864935 +0300,
images2/image51.png,old,afrikan,unknown,,,,,,,,,0,45,45,50,,,,,191.8724632,,,,,,192.8358191,192.8475594,193.3330113,,,,,,,,,,,,193.3925095,191.8513592,normal,191.8724632,191.8724632,192.8350658,right,0.9501357,None,,,,,,,,,,,,,,,,,672451,2,27,2,2025-06-13_13h37.41.762,מחקר פסיכולוגי,2024.1.4,None,2025-06-13 13h38.25.864935 +0300,
images2/image16.png,new,caucasian,famous,,,,,,,,,0,46,46,15,,,,,193.3925095,,,,,,194.1356124,194.1473194,194.6331643,,,,,,,,,,,,194.6507122,193.3339516,normal,193.3925095,193.3925095,194.1347475,left,0.7254671,None,,,,,,,,,,,,,,,,,672451,2,27,2,2025-06-13_13h37.41.762,מחקר פסיכולוגי,2024.1.4,None,2025-06-13 13h38.25.864935 +0300,
images2/image44.png,old,caucasian,famous,,,,,,,,,0,47,47,43,,,,,194.6507122,,,,,,195.5362042,195.5473638,196.0326115,,,,,,,,,,,,196.172007,194.6341464,normal,194.6507122,194.6507122,195.5353605,right,0.8784975,None,,,,,,,,,,,,,,,,,672451,2,27,2,2025-06-13_13h37.41.762,מחקר פסיכולוגי,2024.1.4,None,2025-06-13 13h38.25.864935 +0300,
images2/image25.png,new,caucasian,unknown,,,,,,,,,0,48,48,24,,,,,196.172007,,,,,,196.8357871,196.8474499,197.3326865,,,,,,,,,,,,197.4016054,196.0334562,normal,196.172007,196.172007,196.8349294,left,0.6499075,None,,,,,,,,,,,,,,,,,672451,2,27,2,2025-06-13_13h37.41.762,מחקר פסיכולוגי,2024.1.4,None,2025-06-13 13h38.25.864935 +0300,
images2/image30.png,new,caucasian,unknown,,,,,,,,,0,49,49,29,,,,,197.4016054,,,,,,198.0537145,198.063682,198.5498475,,,,,,,,,,,,198.5731783,197.3335957,normal,197.4016054,197.4016054,198.0528358,left,0.6439105,None,,,,,,,,,,,,,,,,,672451,2,27,2,2025-06-13_13h37.41.762,מחקר פסיכולוגי,2024.1.4,None,2025-06-13 13h38.25.864935 +0300,
images2/image63.png,old,caucasian,unknown,,,,,,,,,0,50,50,62,,,,,198.5731783,,,,,,199.1863694,199.1972317,199.6830887,,,,,,,,,,,,199.7214753,198.550937,normal,198.5731783,198.5731783,199.1855135,left,0.6054755,None,,,,,,,,,,,,,,,,,672451,2,27,2,2025-06-13_13h37.41.762,מחקר פסיכולוגי,2024.1.4,None,2025-06-13 13h38.25.864935 +0300,
images2/image2.png,new,afrikan,famous,,,,,,,,,0,51,51,1,,,,,199.7214753,,,,,,200.686128,200.6974713,201.183066,,,,,,,,,,,,201.2414987,199.6838844,flipped,199.7214753,199.7214753,200.6851592,left,0.947309,None,,,,,,,,,,,,,,,,,672451,2,27,2,2025-06-13_13h37.41.762,מחקר פסיכולוגי,2024.1.4,None,2025-06-13 13h38.25.864935 +0300,
images2/image13.png,new,caucasian,famous,,,,,,,,,0,52,52,12,,,,,201.2414987,,,,,,202.1538843,202.165817,202.6643331,,,,,,,,,,,,,201.183932,flipped,201.2414987,201.2414987,202.1530642,left,0.9064146,None,,,,,,,,,,,,,,,,,672451,2,27,2,2025-06-13_13h37.41.762,מחקר פסיכולוגי,2024.1.4,None,2025-06-13 13h38.25.864935 +0300,
images2/image8.png,new,afrikan,famous,,,,,,,,,0,53,53,7,,,,,202.7209643,,,,,,203.4360681,203.4470593,203.9329196,,,,,,,,,,,,204.0058666,202.6652812,normal,202.7209643,202.7209643,203.4353846,left,0.7113538,None,,,,,,,,,,,,,,,,,672451,2,27,2,2025-06-13_13h37.41.762,מחקר פסיכולוגי,2024.1.4,None,2025-06-13 13h38.25.864935 +0300,
images2/image7.png,new,afrikan,famous,,,,,,,,,0,54,54,6,,,,,204.0058666,,,,,,204.802886,204.8137315,205.2998366,,,,,,,,,,,,205.3597752,203.9338722,flipped,204.0058666,204.0058666,204.8019805,left,0.7860375,None,,,,,,,,,,,,,,,,,672451,2,27,2,2025-06-13_13h37.41.762,מחקר פסיכולוגי,2024.1.4,None,2025-06-13 13h38.25.864935 +0300,
images2/image23.png,new,afrikan,unknown,,,,,,,,,0,55,55,22,,,,,205.3597752,,,,,,207.3557565,207.3637829,207.8491521,,,,,,,,,,,,207.8709282,205.3007848,flipped,205.3597752,205.3597752,207.3549939,left,1.9850519,None,,,,,,,,,,,,,,,,,672451,2,27,2,2025-06-13_13h37.41.762,מחקר פסיכולוגי,2024.1.4,None,2025-06-13 13h38.25.864935 +0300,
images2/image53.png,old,afrikan,unknown,,,,,,,,,0,56,56,52,,,,,207.8709282,,,,,,211.1359395,211.1472826,211.6335743,,,,,,,,,,,,211.6856561,207.8501696,normal,207.8709282,207.8709282,211.13513,left,3.2498906,None,,,,,,,,,,,,,,,,,672451,2,27,2,2025-06-13_13h37.41.762,מחקר פסיכולוגי,2024.1.4,None,2025-06-13 13h38.25.864935 +0300,
images2/image11.png,new,caucasian,famous,,,,,,,,,0,57,57,10,,,,,211.6856561,,,,,,212.4032702,212.4135915,212.8993989,,,,,,,,,,,,212.9196272,211.6345409,normal,211.6856561,211.6856561,212.4023902,left,0.7092984,None,,,,,,,,,,,,,,,,,672451,2,27,2,2025-06-13_13h37.41.762,מחקר פסיכולוגי,2024.1.4,None,2025-06-13 13h38.25.864935 +0300,
images2/image36.png,old,afrikan,famous,,,,,,,,,0,58,58,35,,,,,212.9196272,,,,,,213.7535858,213.7635255,214.2491629,,,,,,,,,,,,214.2670439,212.9007019,flipped,212.9196272,212.9196272,213.7527286,right,0.828926,None,,,,,,,,,,,,,,,,,672451,2,27,2,2025-06-13_13h37.41.762,מחקר פסיכולוגי,2024.1.4,None,2025-06-13 13h38.25.864935 +0300,
images2/image43.png,old,caucasian,famous,,,,,,,,,0,59,59,42,,,,,214.2670439,,,,,,215.1873373,215.1972126,215.6827394,,,,,,,,,,,,215.7170173,214.2498715,flipped,214.2670439,214.2670439,215.1861948,right,0.9066048,None,,,,,,,,,,,,,,,,,672451,2,27,2,2025-06-13_13h37.41.762,מחקר פסיכולוגי,2024.1.4,None,2025-06-13 13h38.25.864935 +0300,
images2/image49.png,old,afrikan,unknown,,,,,,,,,0,60,60,48,,,,,215.7170173,,,,,,217.7367476,217.7468877,218.2326553,,,,,,,,,,,,218.2509394,215.6837012,flipped,215.7170173,215.7170173,217.7359397,left,2.0158849,None,,,,,,,,,,,,,,,,,672451,2,27,2,2025-06-13_13h37.41.762,מחקר פסיכולוגי,2024.1.4,None,2025-06-13 13h38.25.864935 +0300,
images2/image42.png,old,caucasian,famous,,,,,,,,,0,61,61,41,,,,,218.2509394,,,,,,219.5364517,219.5469464,220.0337105,,,,,,,,,,,,220.0538252,218.2336513,flipped,218.2509394,218.2509394,219.5354619,right,1.2770546,None,,,,,,,,,,,,,,,,,672451,2,27,2,2025-06-13_13h37.41.762,מחקר פסיכולוגי,2024.1.4,None,2025-06-13 13h38.25.864935 +0300,
images2/image33.png,old,afrikan,famous,,,,,,,,,0,62,62,32,,,,,220.0538252,,,,,,222.0844034,222.0969351,222.5822405,,,,,,,,,,,,222.6411501,220.0346749,flipped,220.0538252,220.0538252,222.083752,right,2.0157416,None,,,,,,,,,,,,,,,,,672451,2,27,2,2025-06-13_13h37.41.762,מחקר פסיכולוגי,2024.1.4,None,2025-06-13 13h38.25.864935 +0300,
images2/image22.png,new,afrikan,unknown,,,,,,,,,0,63,63,21,,,,,222.6411501,,,,,,224.3361161,224.3472794,224.8327216,,,,,,,,,,,,224.8513705,222.5831688,normal,222.6411501,222.6411501,224.3351147,left,1.6784344,None,,,,,,,,,,,,,,,,,672451,2,27,2,2025-06-13_13h37.41.762,מחקר פסיכולוגי,2024.1.4,None,2025-06-13 13h38.25.864935 +0300,
,,,,,,,,,,,,,,,,,,,,,,,,,,,,,,,,,,,,,,,,,,,,,,,,,224.832934,224.8513705,224.8513705,231.6040617,,,,,,,,,,,,,672451,2,27,2,2025-06-13_13h37.41.762,מחקר פסיכולוגי,2024.1.4,None,2025-06-13 13h38.25.864935 +0300,
,,,,,,,,,,,,,,,,,,,,,,,,,,231.6041569,231.6136679,232.098473,,,,,,,,,,,,232.2115565,,,,,,,,,,,,,,,,,,,,,,,,,672451,2,27,2,2025-06-13_13h37.41.762,מחקר פסיכולוגי,2024.1.4,None,2025-06-13 13h38.25.864935 +0300,
,,,,old | afrikan | normal,images2/image37.png,"האדם בתמונה הוא:
1. זמר 
2. שחקן
3. עתונאי
4. לא מכיר/ה
",1,,,,,,,,,0,0,0,24,232.2115565,,,,,,241.2847126,241.2966562,241.7829062,,,,,,,,,,,,241.8387851,,,,,,,,,,,,,232.1420828,232.2115565,232.2115565,232.2115565,241.2836453,1,9.0677542,None,,,,,672451,2,27,2,2025-06-13_13h37.41.762,מחקר פסיכולוגי,2024.1.4,None,2025-06-13 13h38.25.864935 +0300,
,,,,new | afrikan | flipped,images2/image2.png,"האדם בתמונה הוא:
1. זמר 
2. שחקן
3. ספורטאי
4. לא מכיר/ה
",1,,,,,,,,,0,1,1,1,241.8387851,,,,,,242.8846034,242.8965602,243.3818965,,,,,,,,,,,,243.4294317,,,,,,,,,,,,,241.7839586,241.8387851,241.8387851,241.8387851,242.8838103,1,1.0367536,None,,,,,672451,2,27,2,2025-06-13_13h37.41.762,מחקר פסיכולוגי,2024.1.4,None,2025-06-13 13h38.25.864935 +0300,
,,,,old | caucasian | flipped,images2/image43.png,"האדם בתמונה הוא:
1. זמר 
2. שחקן
3. ספורטאי
4. לא מכיר/ה
",1,,,,,,,,,0,2,2,30,243.4294317,,,,,,244.734677,244.7464253,245.2321398,,,,,,,,,,,,245.2672473,,,,,,,,,,,,,243.3827882,243.4294317,243.4294317,243.4294317,244.7340002,1,1.2924585,None,,,,,672451,2,27,2,2025-06-13_13h37.41.762,מחקר פסיכולוגי,2024.1.4,None,2025-06-13 13h38.25.864935 +0300,
,,,,new | afrikan | flipped,images2/image1.png,"האדם בתמונה הוא:
1. זמר
2. שחקן
3. ספורטאי
4. לא מכיר/ה
",1,,,,,,,,,0,3,3,0,245.2672473,,,,,,246.5020085,246.5133061,246.9987397,,,,,,,,,,,,247.0285071,,,,,,,,,,,,,245.2331197,245.2672473,245.2672473,245.2672473,246.5011767,1,1.2275745,None,,,,,672451,2,27,2,2025-06-13_13h37.41.762,מחקר פסיכולוגי,2024.1.4,None,2025-06-13 13h38.25.864935 +0300,
,,,,new | caucasian | normal,images2/image16.png,"האדם בתמונה הוא:
1. זמר 
2. שחקן
3. ספורטאי
4. לא מכיר/ה
",2,,,,,,,,,0,4,4,15,247.0285071,,,,,,248.6840106,248.6963758,249.181561,,,,,,,,,,,,249.2173657,,,,,,,,,,,,,246.9997454,247.0285071,247.0285071,247.0285071,248.6832875,2,1.6377881,None,,,,,672451,2,27,2,2025-06-13_13h37.41.762,מחקר פסיכולוגי,2024.1.4,None,2025-06-13 13h38.25.864935 +0300,
,,,,new | afrikan | flipped,images2/image7.png,"האדם בתמונה הוא:
1. זמר 
2. שחקן
3. ספורטאי
4. לא מכיר/ה
",1,,,,,,,,,0,5,5,6,249.2173657,,,,,,251.0018002,251.0130333,251.4993185,,,,,,,,,,,,251.5294214,,,,,,,,,,,,,249.1823573,249.2173657,249.2173657,249.2173657,251.0008749,1,1.7729523,None,,,,,672451,2,27,2,2025-06-13_13h37.41.762,מחקר פסיכולוגי,2024.1.4,None,2025-06-13 13h38.25.864935 +0300,
,,,,new | afrikan | normal,images2/image4.png,"האדם בתמונה הוא:
1. זמר 
2. שחקן
3. ספורטאי
4. לא מכיר/ה
",1,,,,,,,,,0,6,6,3,251.5294214,,,,,,252.5343009,252.5463225,253.0319433,,,,,,,,,,,,253.0648273,,,,,,,,,,,,,251.5003694,251.5294214,251.5294214,251.5294214,252.5335191,1,0.9871088,None,,,,,672451,2,27,2,2025-06-13_13h37.41.762,מחקר פסיכולוגי,2024.1.4,None,2025-06-13 13h38.25.864935 +0300,
,,,,old | afrikan | flipped,images2/image34.png,"האדם בתמונה הוא:
1. זמר 
2. שחקן
3. פוליטיקאי
4. לא מכיר/ה
",2,,,,,,,,,0,7,7,21,253.0648273,,,,,,254.0013254,254.0130985,254.4992595,,,,,,,,,,,,254.5501796,,,,,,,,,,,,,253.0328491,253.0648273,253.0648273,253.0648273,254.0005815,2,0.9320941,None,,,,,672451,2,27,2,2025-06-13_13h37.41.762,מחקר פסיכולוגי,2024.1.4,None,2025-06-13 13h38.25.864935 +0300,
,,,,new | afrikan | normal,images2/image3.png,"האדם בתמונה הוא:
1. זמר 
2. שחקן
3. ספורטאי
4. לא מכיר/ה
",3,,,,,,,,,0,8,8,2,254.5501796,,,,,,256.4344303,256.4464296,256.9321318,,,,,,,,,,,,256.98404,,,,,,,,,,,,,254.5004126,254.5501796,254.5501796,254.5501796,256.4336599,3,1.8656392,None,,,,,672451,2,27,2,2025-06-13_13h37.41.762,מחקר פסיכולוגי,2024.1.4,None,2025-06-13 13h38.25.864935 +0300,
,,,,old | caucasian | normal,images2/image45.png,"האדם בתמונה הוא:
1. זמר 
2. שחקן
3. ספורטאי
4. לא מכיר/ה
",2,,,,,,,,,0,9,9,32,256.98404,,,,,,258.3023472,258.3128032,258.7990824,,,,,,,,,,,,258.830035,,,,,,,,,,,,,256.9328607,256.98404,256.98404,256.98404,258.3015701,2,1.3143431,None,,,,,672451,2,27,2,2025-06-13_13h37.41.762,מחקר פסיכולוגי,2024.1.4,None,2025-06-13 13h38.25.864935 +0300,
,,,,new | afrikan | normal,images2/image20.png,"האדם בתמונה הוא:
1. זמר 
2. שחקן
3. ספורטאי
4. לא מכיר/ה
",4,,,,,,,,,0,10,10,17,258.830035,,,,,,261.1011941,261.1128954,261.5987222,,,,,,,,,,,,261.6238355,,,,,,,,,,,,,258.7999805,258.830035,258.830035,258.830035,261.100357,3,2.252273,None,,,,,672451,2,27,2,2025-06-13_13h37.41.762,מחקר פסיכולוגי,2024.1.4,None,2025-06-13 13h38.25.864935 +0300,
,,,,new | caucasian | normal,images2/image11.png,"האדם בתמונה הוא:
1. זמר 
2. שחקן
3. ספורטאי
4. לא מכיר/ה
",3,,,,,,,,,0,11,11,10,261.6238355,,,,,,263.4019829,263.4127883,263.8989454,,,,,,,,,,,,263.9353202,,,,,,,,,,,,,261.5996662,261.6238355,261.6238355,261.6238355,263.4011171,2,1.772114,None,,,,,672451,2,27,2,2025-06-13_13h37.41.762,מחקר פסיכולוגי,2024.1.4,None,2025-06-13 13h38.25.864935 +0300,
,,,,new | afrikan | normal,images2/image18.png,"האדם בתמונה הוא:
1. זמר 
2. שחקן
3. ספורטאי
4. לא מכיר/ה
",4,,,,,,,,,0,12,12,16,263.9353202,,,,,,267.3349575,267.3461631,267.8317996,,,,,,,,,,,,267.8653853,,,,,,,,,,,,,263.8998288,263.9353202,263.9353202,263.9353202,267.3340616,4,3.3874008,None,,,,,672451,2,27,2,2025-06-13_13h37.41.762,מחקר פסיכולוגי,2024.1.4,None,2025-06-13 13h38.25.864935 +0300,
,,,,old | caucasian | flipped,images2/image48.png,"האדם בתמונה הוא:
1. זמר 
2. שחקן
3. ספורטאי
4. לא מכיר/ה
",2,,,,,,,,,0,13,13,35,267.8653853,,,,,,269.317858,269.3293103,269.8145796,,,,,,,,,,,,269.9459192,,,,,,,,,,,,,267.8326901,267.8653853,267.8653853,267.8653853,269.3170579,2,1.4403443,None,,,,,672451,2,27,2,2025-06-13_13h37.41.762,מחקר פסיכולוגי,2024.1.4,None,2025-06-13 13h38.25.864935 +0300,
,,,,old | caucasian | flipped,images2/image62.png,"האדם בתמונה הוא:
1. זמר 
2. שחקן
3. פוליטיקאי
4. לא מכיר/ה
",4,,,,,,,,,0,14,14,19,269.9459192,,,,,,271.6346004,271.646128,272.131988,,,,,,,,,,,,272.2300466,,,,,,,,,,,,,269.8152906,269.9459192,269.9459192,269.9459192,271.633732,4,1.6727723,None,,,,,672451,2,27,2,2025-06-13_13h37.41.762,מחקר פסיכולוגי,2024.1.4,None,2025-06-13 13h38.25.864935 +0300,
,,,,new | afrikan | flipped,images2/image5.png,"האדם בתמונה הוא:
1. זמר 
2. שחקן
3. ספורטאי
4. לא מכיר/ה
",2,,,,,,,,,0,15,15,4,272.2300466,,,,,,274.3348471,274.345886,274.8317538,,,,,,,,,,,,274.8583233,,,,,,,,,,,,,272.1331548,272.2300466,272.2300466,272.2300466,274.3339931,2,2.0913225,None,,,,,672451,2,27,2,2025-06-13_13h37.41.762,מחקר פסיכולוגי,2024.1.4,None,2025-06-13 13h38.25.864935 +0300,
,,,,old | caucasian | normal,images2/image47.png,"האדם בתמונה הוא:
1. זמר 
2. שחקן
3. ספורטאי
4. לא מכיר/ה
",1,,,,,,,,,0,16,16,34,274.8583233,,,,,,276.0175561,276.0294238,276.5148556,,,,,,,,,,,,276.5445523,,,,,,,,,,,,,274.8325933,274.8583233,274.8583233,274.8583233,276.0168112,1,1.1429842,None,,,,,672451,2,27,2,2025-06-13_13h37.41.762,מחקר פסיכולוגי,2024.1.4,None,2025-06-13 13h38.25.864935 +0300,
,,,,old | afrikan | flipped,images2/image33.png,"האדם בתמונה הוא:
1. זמר 
2. שחקן
3.פוליטיקאי
4. לא מכיר/ה
",2,,,,,,,,,0,17,17,20,276.5445523,,,,,,277.6519196,277.662559,278.1485724,,,,,,,,,,,,278.1991374,,,,,,,,,,,,,276.515814,276.5445523,276.5445523,276.5445523,277.6509359,2,1.1001,None,,,,,672451,2,27,2,2025-06-13_13h37.41.762,מחקר פסיכולוגי,2024.1.4,None,2025-06-13 13h38.25.864935 +0300,
,,,,new | caucasian | flipped,images2/image13.png,"האדם בתמונה הוא:
1. זמר 
2. שחקן
3. ספורטאי
4. לא מכיר/ה
",2,,,,,,,,,0,18,18,12,278.1991374,,,,,,279.2514442,279.2625005,279.7484537,,,,,,,,,,,,279.8010986,,,,,,,,,,,,,278.149559,278.1991374,278.1991374,278.1991374,279.2505567,2,1.0372388,None,,,,,672451,2,27,2,2025-06-13_13h37.41.762,מחקר פסיכולוגי,2024.1.4,None,2025-06-13 13h38.25.864935 +0300,
,,,,old | caucasian | normal,images2/image41.png,"האדם בתמונה הוא:
1. זמר 
2. שחקן
3. ספורטאי
4. לא מכיר/ה
",2,,,,,,,,,0,19,19,28,279.8010986,,,,,,280.7346179,280.7458792,281.2310073,,,,,,,,,,,,281.2673638,,,,,,,,,,,,,279.7495368,279.8010986,279.8010986,279.8010986,280.7336758,2,0.9202973,None,,,,,672451,2,27,2,2025-06-13_13h37.41.762,מחקר פסיכולוגי,2024.1.4,None,2025-06-13 13h38.25.864935 +0300,
,,,,old | afrikan | normal,images2/image35.png,"האדם בתמונה הוא:
1. זמר 
2. שחקן
3. פוליטיקאי
4. לא מכיר/ה
",3,,,,,,,,,0,20,20,22,281.2673638,,,,,,282.5671369,282.5789462,283.0645703,,,,,,,,,,,,283.0939603,,,,,,,,,,,,,281.2318425,281.2673638,281.2673638,281.2673638,282.5664227,3,1.2943872,None,,,,,672451,2,27,2,2025-06-13_13h37.41.762,מחקר פסיכולוגי,2024.1.4,None,2025-06-13 13h38.25.864935 +0300,
,,,,old | afrikan | flipped,images2/image38.png,"האדם בתמונה הוא:
1. זמר 
2. שחקן
3. עתונאי
4. לא מכיר/ה
",3,,,,,,,,,0,21,21,25,283.0939603,,,,,,284.6679503,284.679083,285.1650253,,,,,,,,,,,,285.1914757,,,,,,,,,,,,,283.0654699,283.0939603,283.0939603,283.0939603,284.6670871,3,1.5597582,None,,,,,672451,2,27,2,2025-06-13_13h37.41.762,מחקר פסיכולוגי,2024.1.4,None,2025-06-13 13h38.25.864935 +0300,
,,,,new | caucasian | normal,images2/image12.png,"האדם בתמונה הוא:
1. זמר 
2. שחקן
3. ספורטאי
4. לא מכיר/ה
",2,,,,,,,,,0,22,22,11,285.1914757,,,,,,286.8840853,286.8957628,287.3812979,,,,,,,,,,,,287.4111424,,,,,,,,,,,,,285.1658169,285.1914757,285.1914757,285.1914757,286.8833462,2,1.6872439,None,,,,,672451,2,27,2,2025-06-13_13h37.41.762,מחקר פסיכולוגי,2024.1.4,None,2025-06-13 13h38.25.864935 +0300,
,,,,old | afrikan | flipped,images2/image36.png,"האדם בתמונה הוא:
1. זמר 
2. שחקן
3.פוליטיקאי
4. לא מכיר/ה
",1,,,,,,,,,0,23,23,23,287.4111424,,,,,,289.4340637,289.4457051,289.9314751,,,,,,,,,,,,289.9667289,,,,,,,,,,,,,287.3822576,287.4111424,287.4111424,287.4111424,289.4333286,1,2.0054681,None,,,,,672451,2,27,2,2025-06-13_13h37.41.762,מחקר פסיכולוגי,2024.1.4,None,2025-06-13 13h38.25.864935 +0300,
,,,,new | afrikan | normal,images2/image8.png,"האדם בתמונה הוא:
1. זמר 
2. שחקן
3. ספורטאי
4. לא מכיר/ה
",2,,,,,,,,,0,24,24,7,289.9667289,,,,,,290.9515727,290.9622259,291.4486164,,,,,,,,,,,,291.4963516,,,,,,,,,,,,,289.9324046,289.9667289,289.9667289,289.9667289,290.9506005,2,0.9789713,None,,,,,672451,2,27,2,2025-06-13_13h37.41.762,מחקר פסיכולוגי,2024.1.4,None,2025-06-13 13h38.25.864935 +0300,
,,,,old | afrikan | normal,images2/image40.png,"האדם בתמונה הוא:
1. זמר 
2. שחקן
3. עתונאי
4. לא מכיר/ה
",1,,,,,,,,,0,25,25,27,291.4963516,,,,,,292.7175435,292.7289993,293.2147963,,,,,,,,,,,,293.241812,,,,,,,,,,,,,291.4494504,291.4963516,291.4963516,291.4963516,292.7167183,1,1.2038055,None,,,,,672451,2,27,2,2025-06-13_13h37.41.762,מחקר פסיכולוגי,2024.1.4,None,2025-06-13 13h38.25.864935 +0300,
,,,,old | afrikan | normal,images2/image39.png,"האדם בתמונה הוא:
1. זמר 
2. שחקן
3. עתונאי
4. לא מכיר/ה
",2,,,,,,,,,0,26,26,26,293.241812,,,,,,294.2003711,294.2123653,294.6979129,,,,,,,,,,,,294.7251226,,,,,,,,,,,,,293.2157403,293.241812,293.241812,293.241812,294.1995834,2,0.9402964,None,,,,,672451,2,27,2,2025-06-13_13h37.41.762,מחקר פסיכולוגי,2024.1.4,None,2025-06-13 13h38.25.864935 +0300,
,,,,old | caucasian | flipped,images2/image42.png,"האדם בתמונה הוא:
1. זמר 
2. שחקן
3. ספורטאי
4. לא מכיר/ה
",2,,,,,,,,,0,27,27,29,294.7251226,,,,,,297.168431,297.1790179,297.6644019,,,,,,,,,,,,297.6917306,,,,,,,,,,,,,294.6988664,294.7251226,294.7251226,294.7251226,297.1674914,2,2.434178,None,,,,,672451,2,27,2,2025-06-13_13h37.41.762,מחקר פסיכולוגי,2024.1.4,None,2025-06-13 13h38.25.864935 +0300,
,,,,old | caucasian | normal,images2/image44.png,"האדם בתמונה הוא:
1. זמר 
2. שחקן
3. ספורטאי
4. לא מכיר/ה
",2,,,,,,,,,0,28,28,31,297.6917306,,,,,,298.6679748,298.6789196,299.1646527,,,,,,,,,,,,299.1940229,,,,,,,,,,,,,297.6652799,297.6917306,297.6917306,297.6917306,298.6671764,2,0.9665021,None,,,,,672451,2,27,2,2025-06-13_13h37.41.762,מחקר פסיכולוגי,2024.1.4,None,2025-06-13 13h38.25.864935 +0300,
,,,,old | caucasian | flipped,images2/image46.png,"האדם בתמונה הוא:
1. זמר 
2. שחקן
3. ספורטאי
4. לא מכיר/ה
",1,,,,,,,,,0,29,29,33,299.1940229,,,,,,300.1005475,300.1123137,300.598069,,,,,,,,,,,,300.630433,,,,,,,,,,,,,299.1655655,299.1940229,299.1940229,299.1940229,300.0997696,1,0.8885991,None,,,,,672451,2,27,2,2025-06-13_13h37.41.762,מחקר פסיכולוגי,2024.1.4,None,2025-06-13 13h38.25.864935 +0300,
,,,,new | caucasian | flipped,images2/image14.png,"האדם בתמונה הוא:
1. זמר 
2. שחקן
3. ספורטאי
4. לא מכיר/ה
",2,,,,,,,,,0,30,30,13,300.630433,,,,,,301.5172398,301.5289279,302.0145464,,,,,,,,,,,,302.0424696,,,,,,,,,,,,,300.5991621,300.630433,300.630433,300.630433,301.5163932,2,0.8683589,None,,,,,672451,2,27,2,2025-06-13_13h37.41.762,מחקר פסיכולוגי,2024.1.4,None,2025-06-13 13h38.25.864935 +0300,
,,,,new | caucasian | flipped,images2/image10.png,"האדם בתמונה הוא:
1. זמר 
2. שחקן
3. ספורטאי
4. לא מכיר/ה
",2,,,,,,,,,0,31,31,9,302.0424696,,,,,,303.1172486,303.1288065,303.6152429,,,,,,,,,,,,303.6461324,,,,,,,,,,,,,302.015615,302.0424696,302.0424696,302.0424696,303.1164382,2,1.0613436,None,,,,,672451,2,27,2,2025-06-13_13h37.41.762,מחקר פסיכולוגי,2024.1.4,None,2025-06-13 13h38.25.864935 +0300,
,,,,new | caucasian | normal,images2/image15.png,"האדם בתמונה הוא:
1. זמר 
2. שחקן
3. ספורטאי
4. לא מכיר/ה
",2,,,,,,,,,0,32,32,14,303.6461324,,,,,,304.4679199,304.4789852,304.9644093,,,,,,,,,,,,304.9918908,,,,,,,,,,,,,303.6162358,303.6461324,303.6461324,303.6461324,304.4671848,2,0.8156139,None,,,,,672451,2,27,2,2025-06-13_13h37.41.762,מחקר פסיכולוגי,2024.1.4,None,2025-06-13 13h38.25.864935 +0300,
,,,,new | afrikan | normal,images2/image6.png,"האדם בתמונה הוא:
1. זמר 
2. שחקן
3. ספורטאי
4. לא מכיר/ה
",2,,,,,,,,,0,33,33,5,304.9918908,,,,,,312.2164693,312.2287969,312.7150037,,,,,,,,,,,,312.8080189,,,,,,,,,,,,,304.9653238,304.9918908,304.9918908,304.9918908,312.2157716,2,7.2066383,None,,,,,672451,2,27,2,2025-06-13_13h37.41.762,מחקר פסיכולוגי,2024.1.4,None,2025-06-13 13h38.25.864935 +0300,
,,,,new | caucasian | normal,images2/image25.png,"האדם בתמונה הוא:
1. זמר 
2. שחקן
3. ספורטאי
4. לא מכיר/ה
",4,,,,,,,,,0,34,34,18,312.8080189,,,,,,314.2182897,314.228622,314.7143706,,,,,,,,,,,,314.7645742,,,,,,,,,,,,,312.7160339,312.8080189,312.8080189,312.8080189,314.2173424,4,1.4029795,None,,,,,672451,2,27,2,2025-06-13_13h37.41.762,מחקר פסיכולוגי,2024.1.4,None,2025-06-13 13h38.25.864935 +0300,
,,,,new | caucasian | flipped,images2/image9.png,"האדם בתמונה הוא:
1. זמר 
2. שחקן
3. ספורטאי
4. לא מכיר/ה
",2,,,,,,,,,0,35,35,8,314.7645742,,,,,,316.700824,316.7117855,317.1975946,,,,,,,,,,,,317.212158,,,,,,,,,,,,,314.7152363,314.7645742,314.7645742,314.7645742,316.6999796,2,1.923768,None,,,,,672451,2,27,2,2025-06-13_13h37.41.762,מחקר פסיכולוגי,2024.1.4,None,2025-06-13 13h38.25.864935 +0300,
,,,,,,,,,,,,,,,,,,,,,,,,,,,,,,,,,,,,,,,,,,,,,,,,,,,,,,,,,,,,,317.1978083,317.212158,320.2119026,320.1971206,672451,2,27,2,2025-06-13_13h37.41.762,מחקר פסיכולוגי,2024.1.4,None,2025-06-13 13h38.25.864935 +0300,
,,,,,,,,,,old | caucasian | flipped,old | caucasian | normal,new | caucasian | flipped,new | caucasian | normal,old | afrikan | flipped,old | afrikan | normal,new | afrikan | flipped,new | afrikan | normal,,,,,,,,,,,,,,,,,,,,,,,,,,,,,,,,,,,,,,,,,,,,,,,,,,,,,,,,,
,,,,,,,,,,4,4,4,4,4,4,4,4,,,,,,,,,,,,,,,,,,,,,,,,,,,,,,,,,,,,,,,,,,,,,,,,,,,,,,,,,
