imageLearning,thisN,thisTrialN,thisRepN,faceTesting,oldnew,race,isFamous,testkeys.keys,testkeys.rt,testkeys.duration,faceAsking,,options,correctOption,familiarnessKeys.keys,familiarnessKeys.rt,familiarnessKeys.duration,learningLoop.thisRepN,learningLoop.thisTrialN,learningLoop.thisN,learningLoop.thisIndex,testingLoop.thisRepN,testingLoop.thisTrialN,testingLoop.thisN,testingLoop.thisIndex,familiarnessLoop.thisRepN,familiarnessLoop.thisTrialN,familiarnessLoop.thisN,familiarnessLoop.thisIndex,thisRow.t,notes,haskama_2.started,haskama.started,key_resp.started,haskama_2.stopped,Blank500.started,image.started,image.stopped,Blank500.stopped,insLearning.started,insLearning_img.started,key_resp_2.started,insLearning.stopped,learningPic.started,facestudypic.started,learningPic.stopped,insTest.started,insTest_img.started,key_resp_4.started,insTest.stopped,orientation,testingPic.started,facetestpic.started,testkeys.started,testingPic.stopped,testingLoop.testkeys.keys,testingLoop.testkeys.rt,testingLoop.testkeys.duration,insFamiliarness.started,insFamiliarness_img.started,key_resp_5.started,insFamiliarness.stopped,familiarnessPic.started,familiarnessPic_img.started,familiarnessKeys.started,text.started,familiarnessPic.stopped,familiarnessLoop.familiarnessKeys.keys,familiarnessLoop.familiarnessKeys.rt,familiarnessLoop.familiarnessKeys.duration,thankYou.started,text_2.started,text_2.stopped,thankYou.stopped,participant,session,age,"female=""1"""," male=""2""",date,expName,psychopyVersion,frameRate,expStart
,,,,,,,,,,,,,,,,,,,,,,,,,,,,,,,,0.0150544,0.1050192,0.1050192,68.4900444,,,,,,,,,,,,,,,,,,,,,,,,,,,,,,,,,,,,,,,,681032,2,34,2,2025-10-08_13h33.13.976,faces-exp-v2,2024.2.4,120.3310065,2025-10-08 13h33.34.985461 +0300,
,,,,,,,,,,,,,,,,,,,,,,,,,,,,,,,,,,,,68.4901592,68.4945917,68.9877022,68.9797847,,,,,,,,,,,,,,,,,,,,,,,,,,,,,,,,,,,,681032,2,34,2,2025-10-08_13h33.13.976,faces-exp-v2,2024.2.4,120.3310065,2025-10-08 13h33.34.985461 +0300,
,,,,,,,,,,,,,,,,,,,,,,,,,,,,,,,,,,,,,,,,68.9798703,68.9877022,68.9877022,91.105642,,,,,,,,,,,,,,,,,,,,,,,,,,,,,,,,681032,2,34,2,2025-10-08_13h33.13.976,faces-exp-v2,2024.2.4,120.3310065,2025-10-08 13h33.34.985461 +0300,
images2/image42.png,31,31,0,,,,,,,,,,,,,,,0,31,31,9,,,,,,,,,168.6242809,,,,,,170.6066408,170.6138315,171.1072385,171.0977022,,,,,168.6208313,168.6242809,170.6065891,171.0977965,171.1072385,171.1072385,229.1324085,,,,,,,,,,,,,,,,,,,,,,,,,681032,2,34,2,2025-10-08_13h33.13.976,faces-exp-v2,2024.2.4,120.3310065,2025-10-08 13h33.34.985461 +0300,
,,,,,,,,,,,,,,,,,,,,,,,,,,,,,,,,,,,,229.1324925,229.1375028,229.6743509,229.6222768,,,,,,,,,,,,,,,,,,,,,,,,,,,,,,,,,,,,681032,2,34,2,2025-10-08_13h33.13.976,faces-exp-v2,2024.2.4,120.3310065,2025-10-08 13h33.34.985461 +0300,
,0,0,0,images2/image19.png,new,afrikan,unknown,right,2.7410029,None,,,,,,,,,,,,0,0,0,18,,,,,229.6743509,,,,,,232.4229166,232.4291287,232.9463207,232.9140453,,,,,,,,,,,,flipped,229.6695996,229.6743509,229.6743509,232.4228489,right,2.7410029,None,,,,,,,,,,,,,,,,,681032,2,34,2,2025-10-08_13h33.13.976,faces-exp-v2,2024.2.4,120.3310065,2025-10-08 13h33.34.985461 +0300,
,1,1,0,images2/image20.png,new,afrikan,unknown,right,2.7784857,None,,,,,,,,,,,,0,1,1,19,,,,,232.9463207,,,,,,235.7318151,235.7368925,236.2320271,236.2221007,,,,,,,,,,,,normal,232.9430908,232.9463207,232.9463207,235.731669,right,2.7784857,None,,,,,,,,,,,,,,,,,681032,2,34,2,2025-10-08_13h33.13.976,faces-exp-v2,2024.2.4,120.3310065,2025-10-08 13h33.34.985461 +0300,
,2,2,0,images2/image36.png,old,afrikan,famous,right,1.0321131,None,,,,,,,,,,,,0,2,2,35,,,,,236.2320271,,,,,,237.2725172,237.2789191,237.810714,237.7635424,,,,,,,,,,,,normal,236.2280457,236.2320271,236.2320271,237.2724115,right,1.0321131,None,,,,,,,,,,,,,,,,,681032,2,34,2,2025-10-08_13h33.13.976,faces-exp-v2,2024.2.4,120.3310065,2025-10-08 13h33.34.985461 +0300,
,3,3,0,images2/image14.png,new,caucasian,famous,right,0.6998577,None,,,,,,,,,,,,0,3,3,13,,,,,237.810714,,,,,,238.5153287,238.5205593,239.0322684,239.0050035,,,,,,,,,,,,normal,237.8062909,237.810714,237.810714,238.5152116,right,0.6998577,None,,,,,,,,,,,,,,,,,681032,2,34,2,2025-10-08_13h33.13.976,faces-exp-v2,2024.2.4,120.3310065,2025-10-08 13h33.34.985461 +0300,
,4,4,0,images2/image16.png,new,caucasian,famous,right,1.0156576,None,,,,,,,,,,,,0,4,4,15,,,,,239.0322684,,,,,,240.056327,240.0623508,240.6100341,240.5468991,,,,,,,,,,,,flipped,239.0292403,239.0322684,239.0322684,240.0562012,right,1.0156576,None,,,,,,,,,,,,,,,,,681032,2,34,2,2025-10-08_13h33.13.976,faces-exp-v2,2024.2.4,120.3310065,2025-10-08 13h33.34.985461 +0300,
,5,5,0,images2/image1.png,new,afrikan,famous,right,4.9330697,None,,,,,,,,,,,,0,5,5,0,,,,,240.6100341,,,,,,245.5477577,245.5535077,246.0874778,246.0378727,,,,,,,,,,,,flipped,240.6062953,240.6100341,240.6100341,245.5476516,right,4.9330697,None,,,,,,,,,,,,,,,,,681032,2,34,2,2025-10-08_13h33.13.976,faces-exp-v2,2024.2.4,120.3310065,2025-10-08 13h33.34.985461 +0300,
,6,6,0,images2/image59.jpg,old,caucasian,unknown,right,1.0475288,None,,,,,,,,,,,,0,6,6,58,,,,,246.0874778,,,,,,247.1397457,247.1451488,247.6678878,247.6300325,,,,,,,,,,,,flipped,246.0836326,246.0874778,246.0874778,247.1396352,right,1.0475288,None,,,,,,,,,,,,,,,,,681032,2,34,2,2025-10-08_13h33.13.976,faces-exp-v2,2024.2.4,120.3310065,2025-10-08 13h33.34.985461 +0300,
,7,7,0,images2/image61.png,old,caucasian,unknown,right,2.9396034,None,,,,,,,,,,,,0,7,7,60,,,,,247.6678878,,,,,,250.6143012,250.6201754,251.1479876,251.1041135,,,,,,,,,,,,normal,247.6648176,247.6678878,247.6678878,250.6141479,right,2.9396034,None,,,,,,,,,,,,,,,,,681032,2,34,2,2025-10-08_13h33.13.976,faces-exp-v2,2024.2.4,120.3310065,2025-10-08 13h33.34.985461 +0300,
,8,8,0,images2/image62.jpg,old,caucasian,unknown,right,0.6626469,None,,,,,,,,,,,,0,8,8,61,,,,,251.1479876,,,,,,251.8149851,251.8202971,252.3245794,252.3040088,,,,,,,,,,,,normal,251.1434206,251.1479876,251.1479876,251.81488,right,0.6626469,None,,,,,,,,,,,,,,,,,681032,2,34,2,2025-10-08_13h33.13.976,faces-exp-v2,2024.2.4,120.3310065,2025-10-08 13h33.34.985461 +0300,
,9,9,0,images2/image39.png,old,afrikan,famous,left,2.4753661,None,,,,,,,,,,,,0,9,9,38,,,,,252.3245794,,,,,,254.8053502,254.8115309,255.312636,255.29605,,,,,,,,,,,,normal,252.321175,252.3245794,252.3245794,254.805254,left,2.4753661,None,,,,,,,,,,,,,,,,,681032,2,34,2,2025-10-08_13h33.13.976,faces-exp-v2,2024.2.4,120.3310065,2025-10-08 13h33.34.985461 +0300,
,10,10,0,images2/image45.png,old,caucasian,famous,right,1.4300419,None,,,,,,,,,,,,0,10,10,44,,,,,255.312636,,,,,,256.7471267,256.7532966,257.2653792,257.238536,,,,,,,,,,,,normal,255.3080248,255.312636,255.312636,256.7470388,right,1.4300419,None,,,,,,,,,,,,,,,,,681032,2,34,2,2025-10-08_13h33.13.976,faces-exp-v2,2024.2.4,120.3310065,2025-10-08 13h33.34.985461 +0300,
,11,11,0,images2/image10.jpeg,new,caucasian,famous,left,1.8729995,None,,,,,,,,,,,,0,11,11,9,,,,,257.2653792,,,,,,259.1480082,259.1535177,259.6516254,259.6374933,,,,,,,,,,,,normal,257.2614303,257.2653792,257.2653792,259.1479224,left,1.8729995,None,,,,,,,,,,,,,,,,,681032,2,34,2,2025-10-08_13h33.13.976,faces-exp-v2,2024.2.4,120.3310065,2025-10-08 13h33.34.985461 +0300,
,12,12,0,images2/image41.png,old,caucasian,famous,right,0.7820312,None,,,,,,,,,,,,0,12,12,40,,,,,259.6516254,,,,,,260.4389807,260.4449008,260.9390057,260.9290582,,,,,,,,,,,,normal,259.6479008,259.6516254,259.6516254,260.4388795,right,0.7820312,None,,,,,,,,,,,,,,,,,681032,2,34,2,2025-10-08_13h33.13.976,faces-exp-v2,2024.2.4,120.3310065,2025-10-08 13h33.34.985461 +0300,
,13,13,0,images2/image58.png,old,caucasian,unknown,right,0.8528694,None,,,,,,,,,,,,0,13,13,57,,,,,260.9390057,,,,,,261.7967358,261.8030626,262.310055,262.2871975,,,,,,,,,,,,flipped,260.9351112,260.9390057,260.9390057,261.7966651,right,0.8528694,None,,,,,,,,,,,,,,,,,681032,2,34,2,2025-10-08_13h33.13.976,faces-exp-v2,2024.2.4,120.3310065,2025-10-08 13h33.34.985461 +0300,
,14,14,0,images2/image12.jpeg,new,caucasian,famous,right,1.9401382,None,,,,,,,,,,,,0,14,14,11,,,,,262.310055,,,,,,264.2555316,264.2614651,264.7571943,264.7457847,,,,,,,,,,,,flipped,262.305993,262.310055,262.310055,264.2554101,right,1.9401382,None,,,,,,,,,,,,,,,,,681032,2,34,2,2025-10-08_13h33.13.976,faces-exp-v2,2024.2.4,120.3310065,2025-10-08 13h33.34.985461 +0300,
,15,15,0,images2/image42.png,old,caucasian,famous,right,0.7386919,None,,,,,,,,,,,,0,15,15,41,,,,,264.7571943,,,,,,265.5053789,265.5112888,266.0089455,265.9966607,,,,,,,,,,,,flipped,264.7540614,264.7571943,264.7571943,265.5052423,right,0.7386919,None,,,,,,,,,,,,,,,,,681032,2,34,2,2025-10-08_13h33.13.976,faces-exp-v2,2024.2.4,120.3310065,2025-10-08 13h33.34.985461 +0300,
,16,16,0,images2/image53.png,old,afrikan,unknown,right,1.2847578,None,,,,,,,,,,,,0,16,16,52,,,,,266.0089455,,,,,,267.2979884,267.3028765,267.8255068,267.7887444,,,,,,,,,,,,flipped,266.0057924,266.0089455,266.0089455,267.2978747,right,1.2847578,None,,,,,,,,,,,,,,,,,681032,2,34,2,2025-10-08_13h33.13.976,faces-exp-v2,2024.2.4,120.3310065,2025-10-08 13h33.34.985461 +0300,
,17,17,0,images2/image15.png,new,caucasian,famous,right,2.0243937,None,,,,,,,,,,,,0,17,17,14,,,,,267.8255068,,,,,,269.8550588,269.8613361,270.3577616,270.3464069,,,,,,,,,,,,flipped,267.8219334,267.8255068,267.8255068,269.8549825,right,2.0243937,None,,,,,,,,,,,,,,,,,681032,2,34,2,2025-10-08_13h33.13.976,faces-exp-v2,2024.2.4,120.3310065,2025-10-08 13h33.34.985461 +0300,
,18,18,0,images2/image46.png,old,caucasian,famous,right,1.4525444,None,,,,,,,,,,,,0,18,18,45,,,,,270.3577616,,,,,,271.8146537,271.8197172,272.3342177,272.3041756,,,,,,,,,,,,flipped,270.3548634,270.3577616,270.3577616,271.8145198,right,1.4525444,None,,,,,,,,,,,,,,,,,681032,2,34,2,2025-10-08_13h33.13.976,faces-exp-v2,2024.2.4,120.3310065,2025-10-08 13h33.34.985461 +0300,
,19,19,0,images2/image27.png,new,caucasian,unknown,right,0.6323057,None,,,,,,,,,,,,0,19,19,26,,,,,272.3342177,,,,,,272.9726944,272.9778946,273.4715256,273.462799,,,,,,,,,,,,flipped,272.330099,272.3342177,272.3342177,272.9725843,right,0.6323057,None,,,,,,,,,,,,,,,,,681032,2,34,2,2025-10-08_13h33.13.976,faces-exp-v2,2024.2.4,120.3310065,2025-10-08 13h33.34.985461 +0300,
,20,20,0,images2/image49.png,old,afrikan,unknown,right,1.0330335,None,,,,,,,,,,,,0,20,20,48,,,,,273.4715256,,,,,,274.5137637,274.5194943,275.0171462,275.0039443,,,,,,,,,,,,normal,273.4683152,273.4715256,273.4715256,274.5136408,right,1.0330335,None,,,,,,,,,,,,,,,,,681032,2,34,2,2025-10-08_13h33.13.976,faces-exp-v2,2024.2.4,120.3310065,2025-10-08 13h33.34.985461 +0300,
,21,21,0,images2/image54.png,old,afrikan,unknown,right,0.5925789,None,,,,,,,,,,,,0,21,21,53,,,,,275.0171462,,,,,,275.6136923,275.6194305,276.1311358,276.1048356,,,,,,,,,,,,flipped,275.0140437,275.0171462,275.0171462,275.6135502,right,0.5925789,None,,,,,,,,,,,,,,,,,681032,2,34,2,2025-10-08_13h33.13.976,faces-exp-v2,2024.2.4,120.3310065,2025-10-08 13h33.34.985461 +0300,
,22,22,0,images2/image9.jpeg,new,caucasian,famous,right,0.4742304,None,,,,,,,,,,,,0,22,22,8,,,,,276.1311358,,,,,,276.6132534,276.6196238,277.1141419,277.1034794,,,,,,,,,,,,normal,276.1275562,276.1311358,276.1311358,276.613179,right,0.4742304,None,,,,,,,,,,,,,,,,,681032,2,34,2,2025-10-08_13h33.13.976,faces-exp-v2,2024.2.4,120.3310065,2025-10-08 13h33.34.985461 +0300,
,23,23,0,images2/image35.png,old,afrikan,famous,right,0.6690737,None,,,,,,,,,,,,0,23,23,34,,,,,277.1141419,,,,,,277.7895611,277.7945418,278.3120632,278.2784089,,,,,,,,,,,,flipped,277.1105195,277.1141419,277.1141419,277.7894416,right,0.6690737,None,,,,,,,,,,,,,,,,,681032,2,34,2,2025-10-08_13h33.13.976,faces-exp-v2,2024.2.4,120.3310065,2025-10-08 13h33.34.985461 +0300,
,24,24,0,images2/image7.png,new,afrikan,famous,left,1.4754375,None,,,,,,,,,,,,0,24,24,6,,,,,278.3120632,,,,,,279.7964299,279.8028352,280.3178777,280.2864711,,,,,,,,,,,,normal,278.3078463,278.3120632,278.3120632,279.7963396,left,1.4754375,None,,,,,,,,,,,,,,,,,681032,2,34,2,2025-10-08_13h33.13.976,faces-exp-v2,2024.2.4,120.3310065,2025-10-08 13h33.34.985461 +0300,
,25,25,0,images2/image21.png,new,afrikan,unknown,right,1.0316465,None,,,,,,,,,,,,0,25,25,20,,,,,280.3178777,,,,,,281.3546647,281.3609307,281.8543823,281.8453885,,,,,,,,,,,,normal,280.314082,280.3178777,280.3178777,281.3545879,right,1.0316465,None,,,,,,,,,,,,,,,,,681032,2,34,2,2025-10-08_13h33.13.976,faces-exp-v2,2024.2.4,120.3310065,2025-10-08 13h33.34.985461 +0300,
,26,26,0,images2/image40.png,old,afrikan,famous,right,0.8407952,None,,,,,,,,,,,,0,26,26,39,,,,,281.8543823,,,,,,282.6969685,282.7023351,283.2272792,283.1874178,,,,,,,,,,,,normal,281.8504317,281.8543823,281.8543823,282.6968433,right,0.8407952,None,,,,,,,,,,,,,,,,,681032,2,34,2,2025-10-08_13h33.13.976,faces-exp-v2,2024.2.4,120.3310065,2025-10-08 13h33.34.985461 +0300,
,27,27,0,images2/image26.jpg,new,caucasian,unknown,right,0.8122532,None,,,,,,,,,,,,0,27,27,25,,,,,283.2272792,,,,,,284.0459275,284.0523399,284.5510463,284.5378718,,,,,,,,,,,,flipped,283.2233391,283.2272792,283.2272792,284.0458408,right,0.8122532,None,,,,,,,,,,,,,,,,,681032,2,34,2,2025-10-08_13h33.13.976,faces-exp-v2,2024.2.4,120.3310065,2025-10-08 13h33.34.985461 +0300,
,28,28,0,images2/image33.png,old,afrikan,famous,right,1.9636119,None,,,,,,,,,,,,0,28,28,32,,,,,284.5510463,,,,,,286.5229323,286.5275154,287.0442274,287.0120374,,,,,,,,,,,,normal,284.5474538,284.5510463,284.5510463,286.5228027,right,1.9636119,None,,,,,,,,,,,,,,,,,681032,2,34,2,2025-10-08_13h33.13.976,faces-exp-v2,2024.2.4,120.3310065,2025-10-08 13h33.34.985461 +0300,
,29,29,0,images2/image8.png,new,afrikan,famous,right,0.8397437,None,,,,,,,,,,,,0,29,29,7,,,,,287.0442274,,,,,,287.8879867,287.8940454,288.4245287,288.3780977,,,,,,,,,,,,normal,287.0401191,287.0442274,287.0442274,287.887879,right,0.8397437,None,,,,,,,,,,,,,,,,,681032,2,34,2,2025-10-08_13h33.13.976,faces-exp-v2,2024.2.4,120.3310065,2025-10-08 13h33.34.985461 +0300,
,30,30,0,images2/image3.png,new,afrikan,famous,right,7.5417869,None,,,,,,,,,,,,0,30,30,2,,,,,288.4245287,,,,,,295.9713027,295.9774438,296.5151242,296.4621109,,,,,,,,,,,,flipped,288.4207197,288.4245287,288.4245287,295.9712066,right,7.5417869,None,,,,,,,,,,,,,,,,,681032,2,34,2,2025-10-08_13h33.13.976,faces-exp-v2,2024.2.4,120.3310065,2025-10-08 13h33.34.985461 +0300,
,31,31,0,images2/image25.jpg,new,caucasian,unknown,right,0.6411718,None,,,,,,,,,,,,0,31,31,24,,,,,296.5151242,,,,,,297.1627216,297.1690639,297.6819483,297.6537251,,,,,,,,,,,,normal,296.5110905,296.5151242,296.5151242,297.162632,right,0.6411718,None,,,,,,,,,,,,,,,,,681032,2,34,2,2025-10-08_13h33.13.976,faces-exp-v2,2024.2.4,120.3310065,2025-10-08 13h33.34.985461 +0300,
,32,32,0,images2/image4.jpeg,new,afrikan,famous,right,0.9738185,None,,,,,,,,,,,,0,32,32,3,,,,,297.6819483,,,,,,298.6634151,298.6687074,299.2024799,299.1535196,,,,,,,,,,,,flipped,297.6766151,297.6819483,297.6819483,298.663315,right,0.9738185,None,,,,,,,,,,,,,,,,,681032,2,34,2,2025-10-08_13h33.13.976,faces-exp-v2,2024.2.4,120.3310065,2025-10-08 13h33.34.985461 +0300,
,33,33,0,images2/image32.png,new,caucasian,unknown,right,0.7678163,None,,,,,,,,,,,,0,33,33,31,,,,,299.2024799,,,,,,299.979439,299.9855203,300.4818642,300.4702588,,,,,,,,,,,,normal,299.198655,299.2024799,299.2024799,299.9793302,right,0.7678163,None,,,,,,,,,,,,,,,,,681032,2,34,2,2025-10-08_13h33.13.976,faces-exp-v2,2024.2.4,120.3310065,2025-10-08 13h33.34.985461 +0300,
,34,34,0,images2/image55.png,old,afrikan,unknown,right,0.8056981,None,,,,,,,,,,,,0,34,34,54,,,,,300.4818642,,,,,,301.2958883,301.3023896,301.8176846,301.787264,,,,,,,,,,,,normal,300.4784452,300.4818642,300.4818642,301.2958017,right,0.8056981,None,,,,,,,,,,,,,,,,,681032,2,34,2,2025-10-08_13h33.13.976,faces-exp-v2,2024.2.4,120.3310065,2025-10-08 13h33.34.985461 +0300,
,35,35,0,images2/image13.png,new,caucasian,famous,right,0.8043571,None,,,,,,,,,,,,0,35,35,12,,,,,301.8176846,,,,,,302.6299363,302.6355051,303.13315,303.1206415,,,,,,,,,,,,normal,301.8146267,301.8176846,301.8176846,302.6298619,right,0.8043571,None,,,,,,,,,,,,,,,,,681032,2,34,2,2025-10-08_13h33.13.976,faces-exp-v2,2024.2.4,120.3310065,2025-10-08 13h33.34.985461 +0300,
,36,36,0,images2/image34.png,old,afrikan,famous,left,1.5961534,None,,,,,,,,,,,,0,36,36,33,,,,,303.13315,,,,,,304.7377586,304.7438193,305.2401465,305.2277036,,,,,,,,,,,,flipped,303.1299061,303.13315,303.13315,304.7376569,left,1.5961534,None,,,,,,,,,,,,,,,,,681032,2,34,2,2025-10-08_13h33.13.976,faces-exp-v2,2024.2.4,120.3310065,2025-10-08 13h33.34.985461 +0300,
,37,37,0,images2/image50.png,old,afrikan,unknown,right,1.0503629,None,,,,,,,,,,,,0,37,37,49,,,,,305.2401465,,,,,,306.2968233,306.3019631,306.7960872,306.786585,,,,,,,,,,,,normal,305.2362947,305.2401465,305.2401465,306.2967033,right,1.0503629,None,,,,,,,,,,,,,,,,,681032,2,34,2,2025-10-08_13h33.13.976,faces-exp-v2,2024.2.4,120.3310065,2025-10-08 13h33.34.985461 +0300,
,38,38,0,images2/image37.png,old,afrikan,famous,right,1.2829669,None,,,,,,,,,,,,0,38,38,36,,,,,306.7960872,,,,,,308.0876066,308.0934928,308.6035266,308.5774063,,,,,,,,,,,,flipped,306.7922359,306.7960872,306.7960872,308.0874518,right,1.2829669,None,,,,,,,,,,,,,,,,,681032,2,34,2,2025-10-08_13h33.13.976,faces-exp-v2,2024.2.4,120.3310065,2025-10-08 13h33.34.985461 +0300,
,39,39,0,images2/image5.jpeg,new,afrikan,famous,right,0.6050591,None,,,,,,,,,,,,0,39,39,4,,,,,308.6035266,,,,,,309.2130642,309.2187437,309.7131915,309.7028791,,,,,,,,,,,,normal,308.5995052,308.6035266,308.6035266,309.2129575,right,0.6050591,None,,,,,,,,,,,,,,,,,681032,2,34,2,2025-10-08_13h33.13.976,faces-exp-v2,2024.2.4,120.3310065,2025-10-08 13h33.34.985461 +0300,
,40,40,0,images2/image64.png,old,caucasian,unknown,right,0.4454918,None,,,,,,,,,,,,0,40,40,63,,,,,309.7131915,,,,,,310.1622165,310.1686198,310.6639507,310.6536579,,,,,,,,,,,,flipped,309.7095236,309.7131915,309.7131915,310.162093,right,0.4454918,None,,,,,,,,,,,,,,,,,681032,2,34,2,2025-10-08_13h33.13.976,faces-exp-v2,2024.2.4,120.3310065,2025-10-08 13h33.34.985461 +0300,
,41,41,0,images2/image43.png,old,caucasian,famous,right,1.3441312,None,,,,,,,,,,,,0,41,41,42,,,,,310.6639507,,,,,,312.0134769,312.0187245,312.5185525,312.5024682,,,,,,,,,,,,normal,310.6603352,310.6639507,310.6639507,312.013353,right,1.3441312,None,,,,,,,,,,,,,,,,,681032,2,34,2,2025-10-08_13h33.13.976,faces-exp-v2,2024.2.4,120.3310065,2025-10-08 13h33.34.985461 +0300,
,42,42,0,images2/image60.png,old,caucasian,unknown,left,2.6252553,None,,,,,,,,,,,,0,42,42,59,,,,,312.5185525,,,,,,315.1459686,315.1517596,315.6512419,315.6358645,,,,,,,,,,,,normal,312.5146684,312.5185525,312.5185525,315.1458982,left,2.6252553,None,,,,,,,,,,,,,,,,,681032,2,34,2,2025-10-08_13h33.13.976,faces-exp-v2,2024.2.4,120.3310065,2025-10-08 13h33.34.985461 +0300,
,43,43,0,images2/image51.png,old,afrikan,unknown,right,0.6861452,None,,,,,,,,,,,,0,43,43,50,,,,,315.6512419,,,,,,316.3462664,316.3521178,316.8654078,316.836563,,,,,,,,,,,,normal,315.6465784,315.6512419,315.6512419,316.3461413,right,0.6861452,None,,,,,,,,,,,,,,,,,681032,2,34,2,2025-10-08_13h33.13.976,faces-exp-v2,2024.2.4,120.3310065,2025-10-08 13h33.34.985461 +0300,
,44,44,0,images2/image22.png,new,afrikan,unknown,right,0.6281751,None,,,,,,,,,,,,0,44,44,21,,,,,316.8654078,,,,,,317.4968115,317.5017048,317.9978944,317.9868695,,,,,,,,,,,,flipped,316.8616751,316.8654078,316.8654078,317.4967025,right,0.6281751,None,,,,,,,,,,,,,,,,,681032,2,34,2,2025-10-08_13h33.13.976,faces-exp-v2,2024.2.4,120.3310065,2025-10-08 13h33.34.985461 +0300,
,45,45,0,images2/image47.png,old,caucasian,famous,right,1.3563393,None,,,,,,,,,,,,0,45,45,46,,,,,317.9978944,,,,,,319.3621891,319.3683328,319.9189406,319.8521818,,,,,,,,,,,,flipped,317.9945687,317.9978944,317.9978944,319.3620895,right,1.3563393,None,,,,,,,,,,,,,,,,,681032,2,34,2,2025-10-08_13h33.13.976,faces-exp-v2,2024.2.4,120.3310065,2025-10-08 13h33.34.985461 +0300,
,46,46,0,images2/image18.png,new,afrikan,unknown,right,0.7703652,None,,,,,,,,,,,,0,46,46,17,,,,,319.9189406,,,,,,320.6960895,320.7016599,321.1948218,321.1860819,,,,,,,,,,,,normal,319.915472,319.9189406,319.9189406,320.6959445,right,0.7703652,None,,,,,,,,,,,,,,,,,681032,2,34,2,2025-10-08_13h33.13.976,faces-exp-v2,2024.2.4,120.3310065,2025-10-08 13h33.34.985461 +0300,
,47,47,0,images2/image48.jpeg,old,caucasian,famous,left,2.6154644,None,,,,,,,,,,,,0,47,47,47,,,,,321.1948218,,,,,,323.8134927,323.8183893,324.3247753,324.3021376,,,,,,,,,,,,flipped,321.1908904,321.1948218,321.1948218,323.8133866,left,2.6154644,None,,,,,,,,,,,,,,,,,681032,2,34,2,2025-10-08_13h33.13.976,faces-exp-v2,2024.2.4,120.3310065,2025-10-08 13h33.34.985461 +0300,
,48,48,0,images2/image24.png,new,afrikan,unknown,right,1.048667,None,,,,,,,,,,,,0,48,48,23,,,,,324.3247753,,,,,,325.3790826,325.3848505,325.8773162,325.868801,,,,,,,,,,,,flipped,324.3212214,324.3247753,324.3247753,325.3790142,right,1.048667,None,,,,,,,,,,,,,,,,,681032,2,34,2,2025-10-08_13h33.13.976,faces-exp-v2,2024.2.4,120.3310065,2025-10-08 13h33.34.985461 +0300,
,49,49,0,images2/image44.png,old,caucasian,famous,right,1.2566387,None,,,,,,,,,,,,0,49,49,43,,,,,325.8773162,,,,,,327.1370072,327.1430644,327.6398979,327.6279308,,,,,,,,,,,,normal,325.8740757,325.8773162,325.8773162,327.136937,right,1.2566387,None,,,,,,,,,,,,,,,,,681032,2,34,2,2025-10-08_13h33.13.976,faces-exp-v2,2024.2.4,120.3310065,2025-10-08 13h33.34.985461 +0300,
,50,50,0,images2/image52.png,old,afrikan,unknown,right,0.9544436,None,,,,,,,,,,,,0,50,50,51,,,,,327.6398979,,,,,,328.6031755,328.6098498,329.105097,329.0941944,,,,,,,,,,,,flipped,327.6366425,327.6398979,327.6398979,328.6030856,right,0.9544436,None,,,,,,,,,,,,,,,,,681032,2,34,2,2025-10-08_13h33.13.976,faces-exp-v2,2024.2.4,120.3310065,2025-10-08 13h33.34.985461 +0300,
,51,51,0,images2/image38.png,old,afrikan,famous,right,2.4364472,None,,,,,,,,,,,,0,51,51,37,,,,,329.105097,,,,,,331.5455774,331.5514873,332.0472089,332.0365235,,,,,,,,,,,,flipped,329.101817,329.105097,329.105097,331.5454652,right,2.4364472,None,,,,,,,,,,,,,,,,,681032,2,34,2,2025-10-08_13h33.13.976,faces-exp-v2,2024.2.4,120.3310065,2025-10-08 13h33.34.985461 +0300,
,52,52,0,images2/image57.png,old,caucasian,unknown,right,0.7815027,None,,,,,,,,,,,,0,52,52,56,,,,,332.0472089,,,,,,332.8369387,332.8430216,333.36001,333.3274543,,,,,,,,,,,,normal,332.043849,332.0472089,332.0472089,332.8368605,right,0.7815027,None,,,,,,,,,,,,,,,,,681032,2,34,2,2025-10-08_13h33.13.976,faces-exp-v2,2024.2.4,120.3310065,2025-10-08 13h33.34.985461 +0300,
,53,53,0,images2/image23.png,new,afrikan,unknown,right,0.6208879,None,,,,,,,,,,,,0,53,53,22,,,,,333.36001,,,,,,333.9876607,333.9933801,334.5038983,334.4778154,,,,,,,,,,,,normal,333.3564812,333.36001,333.36001,333.9875583,right,0.6208879,None,,,,,,,,,,,,,,,,,681032,2,34,2,2025-10-08_13h33.13.976,faces-exp-v2,2024.2.4,120.3310065,2025-10-08 13h33.34.985461 +0300,
,54,54,0,images2/image2.png,new,afrikan,famous,right,2.8085072,None,,,,,,,,,,,,0,54,54,1,,,,,334.5038983,,,,,,337.3203446,337.3262725,337.8421786,337.8116486,,,,,,,,,,,,normal,334.5002318,334.5038983,334.5038983,337.320185,right,2.8085072,None,,,,,,,,,,,,,,,,,681032,2,34,2,2025-10-08_13h33.13.976,faces-exp-v2,2024.2.4,120.3310065,2025-10-08 13h33.34.985461 +0300,
,55,55,0,images2/image31.png,new,caucasian,unknown,right,0.8133263,None,,,,,,,,,,,,0,55,55,30,,,,,337.8421786,,,,,,338.6620986,338.6680674,339.1792451,339.1528856,,,,,,,,,,,,normal,337.8391577,337.8421786,337.8421786,338.6619965,right,0.8133263,None,,,,,,,,,,,,,,,,,681032,2,34,2,2025-10-08_13h33.13.976,faces-exp-v2,2024.2.4,120.3310065,2025-10-08 13h33.34.985461 +0300,
,56,56,0,images2/image11.jpeg,new,caucasian,famous,right,0.5847242,None,,,,,,,,,,,,0,56,56,10,,,,,339.1792451,,,,,,339.7700016,339.776229,340.2956499,340.2610446,,,,,,,,,,,,flipped,339.1755376,339.1792451,339.1792451,339.7699115,right,0.5847242,None,,,,,,,,,,,,,,,,,681032,2,34,2,2025-10-08_13h33.13.976,faces-exp-v2,2024.2.4,120.3310065,2025-10-08 13h33.34.985461 +0300,
,57,57,0,images2/image56.jpg,old,afrikan,unknown,right,0.456142,None,,,,,,,,,,,,0,57,57,55,,,,,340.2956499,,,,,,340.7549078,340.7593848,341.2715208,341.2438721,,,,,,,,,,,,flipped,340.2919505,340.2956499,340.2956499,340.754789,right,0.456142,None,,,,,,,,,,,,,,,,,681032,2,34,2,2025-10-08_13h33.13.976,faces-exp-v2,2024.2.4,120.3310065,2025-10-08 13h33.34.985461 +0300,
,58,58,0,images2/image6.png,new,afrikan,famous,right,0.3884858,None,,,,,,,,,,,,0,58,58,5,,,,,341.2715208,,,,,,341.6629697,341.6679109,342.182429,342.1526644,,,,,,,,,,,,flipped,341.2651758,341.2715208,341.2715208,341.6628001,right,0.3884858,None,,,,,,,,,,,,,,,,,681032,2,34,2,2025-10-08_13h33.13.976,faces-exp-v2,2024.2.4,120.3310065,2025-10-08 13h33.34.985461 +0300,
,59,59,0,images2/image30.png,new,caucasian,unknown,right,0.9265487,None,,,,,,,,,,,,0,59,59,29,,,,,342.182429,,,,,,343.1122338,343.1177664,343.6529687,343.6018451,,,,,,,,,,,,normal,342.1790466,342.182429,342.182429,343.1121187,right,0.9265487,None,,,,,,,,,,,,,,,,,681032,2,34,2,2025-10-08_13h33.13.976,faces-exp-v2,2024.2.4,120.3310065,2025-10-08 13h33.34.985461 +0300,
,60,60,0,images2/image28.jpg,new,caucasian,unknown,right,1.2575249,None,,,,,,,,,,,,0,60,60,27,,,,,343.6529687,,,,,,344.9195099,344.9258059,345.4549119,345.4103055,,,,,,,,,,,,flipped,343.6480471,343.6529687,343.6529687,344.9194289,right,1.2575249,None,,,,,,,,,,,,,,,,,681032,2,34,2,2025-10-08_13h33.13.976,faces-exp-v2,2024.2.4,120.3310065,2025-10-08 13h33.34.985461 +0300,
,61,61,0,images2/image17.png,new,afrikan,unknown,right,0.9423453,None,,,,,,,,,,,,0,61,61,16,,,,,345.4549119,,,,,,346.4041022,346.4092087,346.9221318,346.8932374,,,,,,,,,,,,flipped,345.4474131,345.4549119,345.4549119,346.4039928,right,0.9423453,None,,,,,,,,,,,,,,,,,681032,2,34,2,2025-10-08_13h33.13.976,faces-exp-v2,2024.2.4,120.3310065,2025-10-08 13h33.34.985461 +0300,
,62,62,0,images2/image29.png,new,caucasian,unknown,right,0.944989,None,,,,,,,,,,,,0,62,62,28,,,,,346.9221318,,,,,,347.8705743,347.876067,348.3720769,348.3602083,,,,,,,,,,,,flipped,346.9184435,346.9221318,346.9221318,347.8704646,right,0.944989,None,,,,,,,,,,,,,,,,,681032,2,34,2,2025-10-08_13h33.13.976,faces-exp-v2,2024.2.4,120.3310065,2025-10-08 13h33.34.985461 +0300,
,63,63,0,images2/image63.png,old,caucasian,unknown,right,0.5846045,None,,,,,,,,,,,,0,63,63,62,,,,,348.3720769,,,,,,348.9622877,348.9673258,349.4608329,349.4525189,,,,,,,,,,,,flipped,348.3684576,348.3720769,348.3720769,348.9621686,right,0.5846045,None,,,,,,,,,,,,,,,,,681032,2,34,2,2025-10-08_13h33.13.976,faces-exp-v2,2024.2.4,120.3310065,2025-10-08 13h33.34.985461 +0300,
,,,,,,,,,,,,,,,,,,,,,,,,,,,,,,,,,,,,,,,,,,,,,,,,,,,,,,,,,,,349.4527175,349.4608329,349.4608329,409.8857392,,,,,,,,,,,,,681032,2,34,2,2025-10-08_13h33.13.976,faces-exp-v2,2024.2.4,120.3310065,2025-10-08 13h33.34.985461 +0300,
,,,,,,,,,,,,,,,,,,,,,,,,,,,,,,,,,,,,409.8858211,409.8910781,410.4627979,410.3759216,,,,,,,,,,,,,,,,,,,,,,,,,,,,,,,,,,,,681032,2,34,2,2025-10-08_13h33.13.976,faces-exp-v2,2024.2.4,120.3310065,2025-10-08 13h33.34.985461 +0300,
,0,0,0,,,,,,,,images2/image8.png,new | afrikan | normal,,2,2,12.7665777,None,,,,,,,,,0,0,0,7,410.4627979,,,,,,423.2317263,423.2375052,423.7389106,423.7226139,,,,,,,,,,,,,,,,,,,,,,,,410.4441355,410.4627979,410.4627979,410.4627979,423.2316169,2,12.7665777,None,,,,,681032,2,34,2,2025-10-08_13h33.13.976,faces-exp-v2,2024.2.4,120.3310065,2025-10-08 13h33.34.985461 +0300,
,1,1,0,,,,,,,,images2/image12.jpeg,new | caucasian | flipped,,2,2,9.5773629,None,,,,,,,,,0,1,1,11,423.7389106,,,,,,433.322769,433.3290019,433.8285653,433.8127714,,,,,,,,,,,,,,,,,,,,,,,,423.7350028,423.7389106,423.7389106,423.7389106,433.3226918,2,9.5773629,None,,,,,681032,2,34,2,2025-10-08_13h33.13.976,faces-exp-v2,2024.2.4,120.3310065,2025-10-08 13h33.34.985461 +0300,
,2,2,0,,,,,,,,images2/image46.png,old | caucasian | flipped,,1,1,1.8144407,None,,,,,,,,,0,2,2,33,433.8285653,,,,,,435.6483071,435.6541239,436.1619385,436.1388146,,,,,,,,,,,,,,,,,,,,,,,,433.8245189,433.8285653,433.8285653,433.8285653,435.6482231,1,1.8144407,None,,,,,681032,2,34,2,2025-10-08_13h33.13.976,faces-exp-v2,2024.2.4,120.3310065,2025-10-08 13h33.34.985461 +0300,
,3,3,0,,,,,,,,images2/image18.png,new | afrikan | normal,,4,3,6.1121609,None,,,,,,,,,0,3,3,16,436.1619385,,,,,,442.2809117,442.2874223,442.7947423,442.7721849,,,,,,,,,,,,,,,,,,,,,,,,436.1572481,436.1619385,436.1619385,436.1619385,442.2808398,3,6.1121609,None,,,,,681032,2,34,2,2025-10-08_13h33.13.976,faces-exp-v2,2024.2.4,120.3310065,2025-10-08 13h33.34.985461 +0300,
,4,4,0,,,,,,,,images2/image45.png,old | caucasian | normal,,2,2,3.4498802,None,,,,,,,,,0,4,4,32,442.7947423,,,,,,446.248036,446.2536458,446.761664,446.7383297,,,,,,,,,,,,,,,,,,,,,,,,442.7910517,442.7947423,442.7947423,442.7947423,446.247858,2,3.4498802,None,,,,,681032,2,34,2,2025-10-08_13h33.13.976,faces-exp-v2,2024.2.4,120.3310065,2025-10-08 13h33.34.985461 +0300,
,5,5,0,,,,,,,,images2/image40.png,old | afrikan | normal,,1,1,2.6922672,None,,,,,,,,,0,5,5,27,446.761664,,,,,,449.4565221,449.4619522,449.965187,449.9471791,,,,,,,,,,,,,,,,,,,,,,,,446.7564634,446.761664,446.761664,446.761664,449.4564483,1,2.6922672,None,,,,,681032,2,34,2,2025-10-08_13h33.13.976,faces-exp-v2,2024.2.4,120.3310065,2025-10-08 13h33.34.985461 +0300,
,6,6,0,,,,,,,,images2/image34.png,old | afrikan | flipped,,2,2,3.814977,None,,,,,,,,,0,6,6,21,449.965187,,,,,,453.7891387,453.7953283,454.3020116,454.2792927,,,,,,,,,,,,,,,,,,,,,,,,449.9614432,449.965187,449.965187,449.965187,453.7890442,2,3.814977,None,,,,,681032,2,34,2,2025-10-08_13h33.13.976,faces-exp-v2,2024.2.4,120.3310065,2025-10-08 13h33.34.985461 +0300,
,7,7,0,,,,,,,,images2/image7.png,new | afrikan | normal,,1,4,5.5534554,None,,,,,,,,,0,7,7,6,454.3020116,,,,,,459.8638711,459.8702441,460.3715788,460.3548954,,,,,,,,,,,,,,,,,,,,,,,,454.2980807,454.3020116,454.3020116,454.3020116,459.863796,4,5.5534554,None,,,,,681032,2,34,2,2025-10-08_13h33.13.976,faces-exp-v2,2024.2.4,120.3310065,2025-10-08 13h33.34.985461 +0300,
,8,8,0,,,,,,,,images2/image37.png,old | afrikan | flipped,,1,1,4.4286877,None,,,,,,,,,0,8,8,24,460.3715788,,,,,,464.8066754,464.811733,465.3123277,465.2964565,,,,,,,,,,,,,,,,,,,,,,,,460.3678504,460.3715788,460.3715788,460.3715788,464.8065424,2,4.4286877,None,,,,,681032,2,34,2,2025-10-08_13h33.13.976,faces-exp-v2,2024.2.4,120.3310065,2025-10-08 13h33.34.985461 +0300,
,9,9,0,,,,,,,,images2/image20.png,new | afrikan | normal,,4,1,5.4325502,None,,,,,,,,,0,9,9,17,465.3123277,,,,,,470.7480387,470.7533108,471.2868303,471.2371811,,,,,,,,,,,,,,,,,,,,,,,,465.3079254,465.3123277,465.3123277,465.3123277,470.7479168,1,5.4325502,None,,,,,681032,2,34,2,2025-10-08_13h33.13.976,faces-exp-v2,2024.2.4,120.3310065,2025-10-08 13h33.34.985461 +0300,
,10,10,0,,,,,,,,images2/image62.jpg,old | caucasian | normal,,4,1,4.7842989,None,,,,,,,,,0,10,10,19,471.2868303,,,,,,476.0728069,476.0780634,476.6111392,476.5621206,,,,,,,,,,,,,,,,,,,,,,,,471.281841,471.2868303,471.2868303,471.2868303,476.0727102,1,4.7842989,None,,,,,681032,2,34,2,2025-10-08_13h33.13.976,faces-exp-v2,2024.2.4,120.3310065,2025-10-08 13h33.34.985461 +0300,
,11,11,0,,,,,,,,images2/image6.png,new | afrikan | flipped,,2,2,3.0602245,None,,,,,,,,,0,11,11,5,476.6111392,,,,,,479.6801354,479.6864586,480.1842634,480.1708952,,,,,,,,,,,,,,,,,,,,,,,,476.607452,476.6111392,476.6111392,476.6111392,479.6800307,2,3.0602245,None,,,,,681032,2,34,2,2025-10-08_13h33.13.976,faces-exp-v2,2024.2.4,120.3310065,2025-10-08 13h33.34.985461 +0300,
,12,12,0,,,,,,,,images2/image9.jpeg,new | caucasian | normal,,2,4,4.9404108,None,,,,,,,,,0,12,12,8,480.1842634,,,,,,485.1311092,485.1362418,485.6439653,485.6211023,,,,,,,,,,,,,,,,,,,,,,,,480.1800068,480.1842634,480.1842634,480.1842634,485.1309831,4,4.9404108,None,,,,,681032,2,34,2,2025-10-08_13h33.13.976,faces-exp-v2,2024.2.4,120.3310065,2025-10-08 13h33.34.985461 +0300,
,13,13,0,,,,,,,,images2/image1.png,new | afrikan | flipped,,1,1,4.6757557,None,,,,,,,,,0,13,13,0,485.6439653,,,,,,490.3222859,490.3274427,490.8319193,490.8121834,,,,,,,,,,,,,,,,,,,,,,,,485.6393063,485.6439653,485.6439653,485.6439653,490.3221838,1,4.6757557,None,,,,,681032,2,34,2,2025-10-08_13h33.13.976,faces-exp-v2,2024.2.4,120.3310065,2025-10-08 13h33.34.985461 +0300,
,14,14,0,,,,,,,,images2/image35.png,old | afrikan | flipped,,3,3,4.4190121,None,,,,,,,,,0,14,14,22,490.8319193,,,,,,495.2551074,495.2608602,495.7636144,495.7453538,,,,,,,,,,,,,,,,,,,,,,,,490.8282211,490.8319193,490.8319193,490.8319193,495.2549872,3,4.4190121,None,,,,,681032,2,34,2,2025-10-08_13h33.13.976,faces-exp-v2,2024.2.4,120.3310065,2025-10-08 13h33.34.985461 +0300,
,15,15,0,,,,,,,,images2/image48.jpeg,old | caucasian | flipped,,2,4,4.5760957,None,,,,,,,,,0,15,15,35,495.7636144,,,,,,500.3469281,500.3529694,500.8552438,500.8371798,,,,,,,,,,,,,,,,,,,,,,,,495.7584081,495.7636144,495.7636144,495.7636144,500.3468624,4,4.5760957,None,,,,,681032,2,34,2,2025-10-08_13h33.13.976,faces-exp-v2,2024.2.4,120.3310065,2025-10-08 13h33.34.985461 +0300,
,16,16,0,,,,,,,,images2/image14.png,new | caucasian | normal,,2,4,10.3136369,None,,,,,,,,,0,16,16,13,500.8552438,,,,,,511.1717387,511.1771015,511.6800878,511.6617169,,,,,,,,,,,,,,,,,,,,,,,,500.8515484,500.8552438,500.8552438,500.8552438,511.1713826,4,10.3136369,None,,,,,681032,2,34,2,2025-10-08_13h33.13.976,faces-exp-v2,2024.2.4,120.3310065,2025-10-08 13h33.34.985461 +0300,
,17,17,0,,,,,,,,images2/image33.png,old | afrikan | normal,,2,2,4.7279537,None,,,,,,,,,0,17,17,20,511.6800878,,,,,,516.4125258,516.4186223,516.9197184,516.9038074,,,,,,,,,,,,,,,,,,,,,,,,511.6758885,511.6800878,511.6800878,511.6800878,516.4124062,3,4.7279537,None,,,,,681032,2,34,2,2025-10-08_13h33.13.976,faces-exp-v2,2024.2.4,120.3310065,2025-10-08 13h33.34.985461 +0300,
,18,18,0,,,,,,,,images2/image43.png,old | caucasian | normal,,1,1,5.520082,None,,,,,,,,,0,18,18,30,516.9197184,,,,,,522.4467958,522.4518992,522.9509452,522.9365414,,,,,,,,,,,,,,,,,,,,,,,,516.9162369,516.9197184,516.9197184,516.9197184,522.4466572,2,5.520082,None,,,,,681032,2,34,2,2025-10-08_13h33.13.976,faces-exp-v2,2024.2.4,120.3310065,2025-10-08 13h33.34.985461 +0300,
,19,19,0,,,,,,,,images2/image4.jpeg,new | afrikan | flipped,,1,1,4.6496889,None,,,,,,,,,0,19,19,3,522.9509452,,,,,,527.6044679,527.6103897,528.1101045,528.0942147,,,,,,,,,,,,,,,,,,,,,,,,522.9471685,522.9509452,522.9509452,522.9509452,527.6043757,1,4.6496889,None,,,,,681032,2,34,2,2025-10-08_13h33.13.976,faces-exp-v2,2024.2.4,120.3310065,2025-10-08 13h33.34.985461 +0300,
,20,20,0,,,,,,,,images2/image41.png,old | caucasian | normal,,2,4,6.3448108,None,,,,,,,,,0,20,20,28,528.1101045,,,,,,534.4629036,534.4683373,534.9711365,534.9523156,,,,,,,,,,,,,,,,,,,,,,,,528.1066225,528.1101045,528.1101045,528.1101045,534.4627744,4,6.3448108,None,,,,,681032,2,34,2,2025-10-08_13h33.13.976,faces-exp-v2,2024.2.4,120.3310065,2025-10-08 13h33.34.985461 +0300,
,21,21,0,,,,,,,,images2/image13.png,new | caucasian | normal,,2,3,8.1441657,None,,,,,,,,,0,21,21,12,534.9711365,,,,,,543.1212782,543.1263573,543.6299742,543.6101049,,,,,,,,,,,,,,,,,,,,,,,,534.9669812,534.9711365,534.9711365,534.9711365,543.1211587,3,8.1441657,None,,,,,681032,2,34,2,2025-10-08_13h33.13.976,faces-exp-v2,2024.2.4,120.3310065,2025-10-08 13h33.34.985461 +0300,
,22,22,0,,,,,,,,images2/image36.png,old | afrikan | normal,,1,2,7.5501926,None,,,,,,,,,0,22,22,23,543.6299742,,,,,,551.1866144,551.1927913,551.6953074,551.6777591,,,,,,,,,,,,,,,,,,,,,,,,543.6245219,543.6299742,543.6299742,543.6299742,551.1865426,2,7.5501926,None,,,,,681032,2,34,2,2025-10-08_13h33.13.976,faces-exp-v2,2024.2.4,120.3310065,2025-10-08 13h33.34.985461 +0300,
,23,23,0,,,,,,,,images2/image15.png,new | caucasian | flipped,,2,2,3.9232267,None,,,,,,,,,0,23,23,14,551.6953074,,,,,,555.6202709,555.6260142,556.1256481,556.1102873,,,,,,,,,,,,,,,,,,,,,,,,551.6912379,551.6953074,551.6953074,551.6953074,555.6201786,2,3.9232267,None,,,,,681032,2,34,2,2025-10-08_13h33.13.976,faces-exp-v2,2024.2.4,120.3310065,2025-10-08 13h33.34.985461 +0300,
,24,24,0,,,,,,,,images2/image5.jpeg,new | afrikan | normal,,2,2,6.807545,None,,,,,,,,,0,24,24,4,556.1256481,,,,,,562.9359024,562.9423092,563.485568,563.4267791,,,,,,,,,,,,,,,,,,,,,,,,556.1215821,556.1256481,556.1256481,556.1256481,562.9358307,2,6.807545,None,,,,,681032,2,34,2,2025-10-08_13h33.13.976,faces-exp-v2,2024.2.4,120.3310065,2025-10-08 13h33.34.985461 +0300,
,25,25,0,,,,,,,,images2/image25.jpg,new | caucasian | normal,,4,4,6.0835014,None,,,,,,,,,0,25,25,18,563.485568,,,,,,569.5782818,569.5839106,570.0912464,570.0680074,,,,,,,,,,,,,,,,,,,,,,,,563.4806932,563.485568,563.485568,563.485568,569.5781607,4,6.0835014,None,,,,,681032,2,34,2,2025-10-08_13h33.13.976,faces-exp-v2,2024.2.4,120.3310065,2025-10-08 13h33.34.985461 +0300,
,26,26,0,,,,,,,,images2/image16.png,new | caucasian | flipped,,2,2,8.0549216,None,,,,,,,,,0,26,26,15,570.0912464,,,,,,578.1538521,578.1585413,578.6587965,578.6426054,,,,,,,,,,,,,,,,,,,,,,,,570.0857127,570.0912464,570.0912464,570.0912464,578.1537193,2,8.0549216,None,,,,,681032,2,34,2,2025-10-08_13h33.13.976,faces-exp-v2,2024.2.4,120.3310065,2025-10-08 13h33.34.985461 +0300,
,27,27,0,,,,,,,,images2/image38.png,old | afrikan | flipped,,3,3,5.0277605,None,,,,,,,,,0,27,27,25,578.6587965,,,,,,583.6949433,583.7007383,584.2009136,584.1849397,,,,,,,,,,,,,,,,,,,,,,,,578.6539316,578.6587965,578.6587965,578.6587965,583.6948195,3,5.0277605,None,,,,,681032,2,34,2,2025-10-08_13h33.13.976,faces-exp-v2,2024.2.4,120.3310065,2025-10-08 13h33.34.985461 +0300,
,28,28,0,,,,,,,,images2/image3.png,new | afrikan | flipped,,3,3,3.6194799,None,,,,,,,,,0,28,28,2,584.2009136,,,,,,587.8270278,587.8334657,588.333537,588.3184718,,,,,,,,,,,,,,,,,,,,,,,,584.196851,584.2009136,584.2009136,584.2009136,587.8269551,3,3.6194799,None,,,,,681032,2,34,2,2025-10-08_13h33.13.976,faces-exp-v2,2024.2.4,120.3310065,2025-10-08 13h33.34.985461 +0300,
,29,29,0,,,,,,,,images2/image11.jpeg,new | caucasian | flipped,,3,3,3.0181338,None,,,,,,,,,0,29,29,10,588.333537,,,,,,591.3605598,591.3668107,591.8664525,591.8507816,,,,,,,,,,,,,,,,,,,,,,,,588.3301702,588.333537,588.333537,588.333537,591.360408,3,3.0181338,None,,,,,681032,2,34,2,2025-10-08_13h33.13.976,faces-exp-v2,2024.2.4,120.3310065,2025-10-08 13h33.34.985461 +0300,
,30,30,0,,,,,,,,images2/image39.png,old | afrikan | normal,,2,3,2.4874885,None,,,,,,,,,0,30,30,26,591.8664525,,,,,,594.3605345,594.3669313,594.8647699,594.8504807,,,,,,,,,,,,,,,,,,,,,,,,591.8614563,591.8664525,591.8664525,591.8664525,594.3604291,3,2.4874885,None,,,,,681032,2,34,2,2025-10-08_13h33.13.976,faces-exp-v2,2024.2.4,120.3310065,2025-10-08 13h33.34.985461 +0300,
,31,31,0,,,,,,,,images2/image42.png,old | caucasian | flipped,,2,1,4.899165,None,,,,,,,,,0,31,31,29,594.8647699,,,,,,599.7692941,599.7749789,600.2706865,600.2588712,,,,,,,,,,,,,,,,,,,,,,,,594.8613113,594.8647699,594.8647699,594.8647699,599.7691933,1,4.899165,None,,,,,681032,2,34,2,2025-10-08_13h33.13.976,faces-exp-v2,2024.2.4,120.3310065,2025-10-08 13h33.34.985461 +0300,
,32,32,0,,,,,,,,images2/image47.png,old | caucasian | flipped,,1,3,5.0601981,None,,,,,,,,,0,32,32,34,600.2706865,,,,,,605.3360073,605.3414413,605.8417671,605.8256794,,,,,,,,,,,,,,,,,,,,,,,,600.2668678,600.2706865,600.2706865,600.2706865,605.3358767,3,5.0601981,None,,,,,681032,2,34,2,2025-10-08_13h33.13.976,faces-exp-v2,2024.2.4,120.3310065,2025-10-08 13h33.34.985461 +0300,
,33,33,0,,,,,,,,images2/image10.jpeg,new | caucasian | normal,,2,3,8.151802,None,,,,,,,,,0,33,33,9,605.8417671,,,,,,613.9960462,613.9993488,614.5024774,614.4836917,,,,,,,,,,,,,,,,,,,,,,,,605.837237,605.8417671,605.8417671,605.8417671,613.9959412,3,8.151802,None,,,,,681032,2,34,2,2025-10-08_13h33.13.976,faces-exp-v2,2024.2.4,120.3310065,2025-10-08 13h33.34.985461 +0300,
,34,34,0,,,,,,,,images2/image2.png,new | afrikan | normal,,1,3,3.3327271,None,,,,,,,,,0,34,34,1,614.5024774,,,,,,617.8430197,617.8492521,618.3497063,618.3337025,,,,,,,,,,,,,,,,,,,,,,,,614.4976109,614.5024774,614.5024774,614.5024774,617.8429108,3,3.3327271,None,,,,,681032,2,34,2,2025-10-08_13h33.13.976,faces-exp-v2,2024.2.4,120.3310065,2025-10-08 13h33.34.985461 +0300,
,35,35,0,,,,,,,,images2/image44.png,old | caucasian | normal,,2,1,3.5394722,None,,,,,,,,,0,35,35,31,618.3497063,,,,,,621.8937113,621.8990513,622.3908264,622.3836849,,,,,,,,,,,,,,,,,,,,,,,,618.3462057,618.3497063,618.3497063,618.3497063,621.8936388,1,3.5394722,None,,,,,681032,2,34,2,2025-10-08_13h33.13.976,faces-exp-v2,2024.2.4,120.3310065,2025-10-08 13h33.34.985461 +0300,
,,,,,,,,,,,,,,,,,,,,,,,,,,,,,,,,,,,,,,,,,,,,,,,,,,,,,,,,,,,,,,,,,,,,,,,622.3838966,622.3908264,625.3825793,625.3760858,681032,2,34,2,2025-10-08_13h33.13.976,faces-exp-v2,2024.2.4,120.3310065,2025-10-08 13h33.34.985461 +0300,
,,,,,,,,,,old | caucasian | flipped,old | caucasian | normal,new | caucasian | flipped,new | caucasian | normal,old | afrikan | flipped,old | afrikan | normal,new | afrikan | flipped,new | afrikan | normal,,sum,,,,,,,,,,,,,,,,,,,,,,,,,,,,,,,,,,,,,,,,,,,,,,,,,,,,,,,,,,,,,,,,,
,,,,,,,,,not 4,3,3,4,2,4,4,4,3,,27,,,,,,,,,,,,,,,,,,,,,,,,,,,,,,,,,,,,,,,,,,,,,,,,,,,,,,,,,,,,,,,,,
,,,,,,,,,correct,1,2,4,0,4,2,4,2,,19,,,,,,,,,,,,,,,,,,,,,,,,,,,,,,,,,,,,,,,,,,,,,,,,,,,,,,,,,,,,,,,,,
,,,,,,,,,,,,,,,,,,,,,,,,,,,,,,,,,,,,,,,,,,,,,,,,,,,,,,,,,,,,,,,,,,,,,,,,,,,,,,,,,,,,
,,,,,,,,,sum correct,19,,,,,,,,,,,,,,,,,,,,,,,,,,,,,,,,,,,,,,,,,,,,,,,,,,,,,,,,,,,,,,,,,,,,,,,,,,
,,,,,,,,,sum not 4,27,,,,,,,,,,,,,,,,,,,,,,,,,,,,,,,,,,,,,,,,,,,,,,,,,,,,,,,,,,,,,,,,,,,,,,,,,,
