orientation,__session,options,familiarnessPic.stopped,Blank500.started,Blank500.stopped,participant,insTest.stopped,__datetime,frameRate,familiarnessLoop.thisIndex,familiarnessLoop.thisN,insFamiliarness.started,familiarnessLoop.thisRepN,familiarnessLoop.ran,insLearning.stopped,testingLoop.thisN,thankYou.started,age,__participant,session,OS,insFamiliarness.stopped,haskama_2.started,testkeys.keys,familiarnessLoop.thisTrialN,faceTesting,testingPic.stopped,race,testingLoop.ran,learningPic.started,familiarnessKeys.rt,__experimentName,familiarnessPic.started,"female=""1"", male=""2""",insTest.started,psychopyVersion,thankYou.stopped,testingPic.started,faceAsking,expName,learningPic.stopped,familiarnessKeys.keys,haskama_2.stopped,isFamous,testingLoop.thisRepN,date,oldnew,testingLoop.thisIndex,correctOption,testkeys.rt,testingLoop.thisTrialN,insLearning.started,
﻿,1,,,83.6345,84.135,756213,85.6197,2025-10-10_13h12.34.582,59.88023952,,,,,,4.1387,,,28,756213,1,Win32,,0.0004,,,,,,,81.6356,,faces-exp-v1,,2,84.1362,2024.2.4,,,,faces-exp-v1,83.6345,,2.6555,,,2025-10-10_13h13.24.603,,,,,,3.1555,
﻿,1,,,85.6198,86.1201,756213,,2025-10-10_13h12.34.582,59.88023952,,,,,,,,,28,756213,1,Win32,,,,,,,,,,,faces-exp-v1,,2,,2024.2.4,,,,faces-exp-v1,,,,,,2025-10-10_13h13.24.603,,,,,,,
﻿normal,1,,,87.8894,88.3891,756213,,2025-10-10_13h12.34.582,59.88023952,,,,,,,0,,28,756213,1,Win32,,,left,,images2/image23.png,87.8893,afrikan,1,,,faces-exp-v1,,2,,2024.2.4,,86.1328,,faces-exp-v1,,,,unknown,0,2025-10-10_13h13.24.603,old,22,,1.7353,0,,
﻿flipped,1,,,89.5742,90.074,756213,,2025-10-10_13h12.34.582,59.88023952,,,,,,,1,,28,756213,1,Win32,,,right,,images2/image13.png,89.5741,caucasian,1,,,faces-exp-v1,,2,,2024.2.4,,88.391,,faces-exp-v1,,,,famous,0,2025-10-10_13h13.24.603,old,12,,1.1575,1,,
﻿flipped,1,,,91.3421,91.8425,756213,,2025-10-10_13h12.34.582,59.88023952,,,,,,,2,,28,756213,1,Win32,,,left,,images2/image37.png,91.3421,afrikan,1,,,faces-exp-v1,,2,,2024.2.4,,90.0754,,faces-exp-v1,,,,famous,0,2025-10-10_13h13.24.603,new,36,,1.2355,2,,
﻿flipped,1,,,96.5816,97.0816,756213,,2025-10-10_13h12.34.582,59.88023952,,,,,,,3,,28,756213,1,Win32,,,right,,images2/image14.png,96.5814,caucasian,1,,,faces-exp-v1,,2,,2024.2.4,,91.844,,faces-exp-v1,,,,famous,0,2025-10-10_13h13.24.603,old,13,,4.7138,3,,
﻿normal,1,,,98.3999,98.8999,756213,,2025-10-10_13h12.34.582,59.88023952,,,,,,,4,,28,756213,1,Win32,,,left,,images2/image42.png,98.3998,caucasian,1,,,faces-exp-v1,,2,,2024.2.4,,97.0844,,faces-exp-v1,,,,famous,0,2025-10-10_13h13.24.603,new,41,,1.2851,4,,
﻿flipped,1,,,100.4189,100.9186,756213,,2025-10-10_13h12.34.582,59.88023952,,,,,,,5,,28,756213,1,Win32,,,left,,images2/image59.jpg,100.4188,caucasian,1,,,faces-exp-v1,,2,,2024.2.4,,98.902,,faces-exp-v1,,,,unknown,0,2025-10-10_13h13.24.603,new,58,,1.4648,5,,
﻿flipped,1,,,102.4376,102.9372,756213,,2025-10-10_13h12.34.582,59.88023952,,,,,,,6,,28,756213,1,Win32,,,left,,images2/image33.png,102.4373,afrikan,1,,,faces-exp-v1,,2,,2024.2.4,,100.9208,,faces-exp-v1,,,,famous,0,2025-10-10_13h13.24.603,new,32,,1.4857,6,,
﻿normal,1,,,104.2228,104.7225,756213,,2025-10-10_13h12.34.582,59.88023952,,,,,,,7,,28,756213,1,Win32,,,left,,images2/image50.png,104.2227,afrikan,1,,,faces-exp-v1,,2,,2024.2.4,,102.9396,,faces-exp-v1,,,,unknown,0,2025-10-10_13h13.24.603,new,49,,1.2525,7,,
﻿flipped,1,,,105.7568,106.2572,756213,,2025-10-10_13h12.34.582,59.88023952,,,,,,,8,,28,756213,1,Win32,,,right,,images2/image43.png,105.7566,caucasian,1,,,faces-exp-v1,,2,,2024.2.4,,104.7247,,faces-exp-v1,,,,famous,0,2025-10-10_13h13.24.603,new,42,,1.0083,8,,
﻿flipped,1,,,107.5425,108.0423,756213,,2025-10-10_13h12.34.582,59.88023952,,,,,,,9,,28,756213,1,Win32,,,left,,images2/image35.png,107.5424,afrikan,1,,,faces-exp-v1,,2,,2024.2.4,,106.2593,,faces-exp-v1,,,,famous,0,2025-10-10_13h13.24.603,new,34,,1.252,9,,
﻿normal,1,,,109.577,110.0774,756213,,2025-10-10_13h12.34.582,59.88023952,,,,,,,10,,28,756213,1,Win32,,,left,,images2/image34.png,109.5769,afrikan,1,,,faces-exp-v1,,2,,2024.2.4,,108.0445,,faces-exp-v1,,,,famous,0,2025-10-10_13h13.24.603,new,33,,1.5018,10,,
﻿flipped,1,,,111.1624,111.6622,756213,,2025-10-10_13h12.34.582,59.88023952,,,,,,,11,,28,756213,1,Win32,,,right,,images2/image4.jpeg,111.1623,afrikan,1,,,faces-exp-v1,,2,,2024.2.4,,110.0788,,faces-exp-v1,,,,famous,0,2025-10-10_13h13.24.603,old,3,,1.0531,11,,
﻿normal,1,,,112.8636,113.3642,756213,,2025-10-10_13h12.34.582,59.88023952,,,,,,,12,,28,756213,1,Win32,,,left,,images2/image63.png,112.8636,caucasian,1,,,faces-exp-v1,,2,,2024.2.4,,111.6629,,faces-exp-v1,,,,unknown,0,2025-10-10_13h13.24.603,new,62,,1.1687,12,,
﻿normal,1,,,114.6155,115.1158,756213,,2025-10-10_13h12.34.582,59.88023952,,,,,,,13,,28,756213,1,Win32,,,left,,images2/image52.png,114.6153,afrikan,1,,,faces-exp-v1,,2,,2024.2.4,,113.3663,,faces-exp-v1,,,,unknown,0,2025-10-10_13h13.24.603,new,51,,1.2185,13,,
﻿flipped,1,,,116.1837,116.684,756213,,2025-10-10_13h12.34.582,59.88023952,,,,,,,14,,28,756213,1,Win32,,,left,,images2/image21.png,116.1836,afrikan,1,,,faces-exp-v1,,2,,2024.2.4,,115.1172,,faces-exp-v1,,,,unknown,0,2025-10-10_13h13.24.603,old,20,,1.035,14,,
﻿flipped,1,,,119.4705,119.9705,756213,,2025-10-10_13h12.34.582,59.88023952,,,,,,,15,,28,756213,1,Win32,,,left,,images2/image41.png,119.4703,caucasian,1,,,faces-exp-v1,,2,,2024.2.4,,116.6852,,faces-exp-v1,,,,famous,0,2025-10-10_13h13.24.603,new,40,,2.7542,15,,
﻿normal,1,,,121.2221,121.7222,756213,,2025-10-10_13h12.34.582,59.88023952,,,,,,,16,,28,756213,1,Win32,,,right,,images2/image11.jpeg,121.2219,caucasian,1,,,faces-exp-v1,,2,,2024.2.4,,119.9717,,faces-exp-v1,,,,famous,0,2025-10-10_13h13.24.603,old,10,,1.2183,16,,
﻿normal,1,,,122.7233,123.2238,756213,,2025-10-10_13h12.34.582,59.88023952,,,,,,,17,,28,756213,1,Win32,,,right,,images2/image12.jpeg,122.7232,caucasian,1,,,faces-exp-v1,,2,,2024.2.4,,121.7234,,faces-exp-v1,,,,famous,0,2025-10-10_13h13.24.603,old,11,,0.976,17,,
﻿flipped,1,,,124.9758,125.4761,756213,,2025-10-10_13h12.34.582,59.88023952,,,,,,,18,,28,756213,1,Win32,,,left,,images2/image39.png,124.9757,afrikan,1,,,faces-exp-v1,,2,,2024.2.4,,123.2248,,faces-exp-v1,,,,famous,0,2025-10-10_13h13.24.603,new,38,,1.719,18,,
﻿normal,1,,,126.8109,127.3112,756213,,2025-10-10_13h12.34.582,59.88023952,,,,,,,19,,28,756213,1,Win32,,,left,,images2/image64.png,126.8108,caucasian,1,,,faces-exp-v1,,2,,2024.2.4,,125.4776,,faces-exp-v1,,,,unknown,0,2025-10-10_13h13.24.603,new,63,,1.3025,19,,
﻿flipped,1,,,129.3133,129.8136,756213,,2025-10-10_13h12.34.582,59.88023952,,,,,,,20,,28,756213,1,Win32,,,left,,images2/image51.png,129.3133,afrikan,1,,,faces-exp-v1,,2,,2024.2.4,,127.3124,,faces-exp-v1,,,,unknown,0,2025-10-10_13h13.24.603,new,50,,1.9716,20,,
﻿flipped,1,,,131.4489,131.9492,756213,,2025-10-10_13h12.34.582,59.88023952,,,,,,,21,,28,756213,1,Win32,,,right,,images2/image61.png,131.4488,caucasian,1,,,faces-exp-v1,,2,,2024.2.4,,129.8151,,faces-exp-v1,,,,unknown,0,2025-10-10_13h13.24.603,new,60,,1.6052,21,,
﻿normal,1,,,134.3684,134.8687,756213,,2025-10-10_13h12.34.582,59.88023952,,,,,,,22,,28,756213,1,Win32,,,left,,images2/image56.jpg,134.3683,afrikan,1,,,faces-exp-v1,,2,,2024.2.4,,131.9504,,faces-exp-v1,,,,unknown,0,2025-10-10_13h13.24.603,new,55,,2.3827,22,,
﻿flipped,1,,,136.07,136.5704,756213,,2025-10-10_13h12.34.582,59.88023952,,,,,,,23,,28,756213,1,Win32,,,left,,images2/image19.png,136.07,afrikan,1,,,faces-exp-v1,,2,,2024.2.4,,134.8695,,faces-exp-v1,,,,unknown,0,2025-10-10_13h13.24.603,old,18,,1.1686,23,,
﻿normal,1,,,137.5715,138.072,756213,,2025-10-10_13h12.34.582,59.88023952,,,,,,,24,,28,756213,1,Win32,,,right,,images2/image27.png,137.5715,caucasian,1,,,faces-exp-v1,,2,,2024.2.4,,136.5714,,faces-exp-v1,,,,unknown,0,2025-10-10_13h13.24.603,old,26,,0.976,24,,
﻿normal,1,,,139.6904,140.1907,756213,,2025-10-10_13h12.34.582,59.88023952,,,,,,,25,,28,756213,1,Win32,,,right,,images2/image36.png,139.6904,afrikan,1,,,faces-exp-v1,,2,,2024.2.4,,138.0735,,faces-exp-v1,,,,famous,0,2025-10-10_13h13.24.603,new,35,,1.5947,25,,
﻿flipped,1,,,141.5588,142.0592,756213,,2025-10-10_13h12.34.582,59.88023952,,,,,,,26,,28,756213,1,Win32,,,left,,images2/image57.png,141.5588,caucasian,1,,,faces-exp-v1,,2,,2024.2.4,,140.192,,faces-exp-v1,,,,unknown,0,2025-10-10_13h13.24.603,new,56,,1.3355,26,,
﻿flipped,1,,,143.0936,143.5941,756213,,2025-10-10_13h12.34.582,59.88023952,,,,,,,27,,28,756213,1,Win32,,,left,,images2/image53.png,143.0936,afrikan,1,,,faces-exp-v1,,2,,2024.2.4,,142.0602,,faces-exp-v1,,,,unknown,0,2025-10-10_13h13.24.603,new,52,,1.0019,27,,
﻿normal,1,,,144.6954,145.1957,756213,,2025-10-10_13h12.34.582,59.88023952,,,,,,,28,,28,756213,1,Win32,,,left,,images2/image3.png,144.6954,afrikan,1,,,faces-exp-v1,,2,,2024.2.4,,143.5956,,faces-exp-v1,,,,famous,0,2025-10-10_13h13.24.603,old,2,,1.0684,28,,
﻿normal,1,,,146.1802,146.6805,756213,,2025-10-10_13h12.34.582,59.88023952,,,,,,,29,,28,756213,1,Win32,,,left,,images2/image18.png,146.1801,afrikan,1,,,faces-exp-v1,,2,,2024.2.4,,145.1969,,faces-exp-v1,,,,unknown,0,2025-10-10_13h13.24.603,old,17,,0.9516,29,,
﻿normal,1,,,147.9152,148.4154,756213,,2025-10-10_13h12.34.582,59.88023952,,,,,,,30,,28,756213,1,Win32,,,left,,images2/image17.png,147.9151,afrikan,1,,,faces-exp-v1,,2,,2024.2.4,,146.6817,,faces-exp-v1,,,,unknown,0,2025-10-10_13h13.24.603,old,16,,1.2019,30,,
﻿flipped,1,,,149.5001,150.0004,756213,,2025-10-10_13h12.34.582,59.88023952,,,,,,,31,,28,756213,1,Win32,,,left,,images2/image2.png,149.5001,afrikan,1,,,faces-exp-v1,,2,,2024.2.4,,148.4161,,faces-exp-v1,,,,famous,0,2025-10-10_13h13.24.603,old,1,,1.0519,31,,
﻿normal,1,,,152.9201,153.4205,756213,,2025-10-10_13h12.34.582,59.88023952,,,,,,,32,,28,756213,1,Win32,,,right,,images2/image62.jpg,152.9201,caucasian,1,,,faces-exp-v1,,2,,2024.2.4,,150.0017,,faces-exp-v1,,,,unknown,0,2025-10-10_13h13.24.603,new,61,,2.8848,32,,
﻿normal,1,,,156.0066,156.5069,756213,,2025-10-10_13h12.34.582,59.88023952,,,,,,,33,,28,756213,1,Win32,,,left,,images2/image8.png,156.0066,afrikan,1,,,faces-exp-v1,,2,,2024.2.4,,153.4215,,faces-exp-v1,,,,famous,0,2025-10-10_13h13.24.603,old,7,,2.558,33,,
﻿flipped,1,,,158.7426,159.243,756213,,2025-10-10_13h12.34.582,59.88023952,,,,,,,34,,28,756213,1,Win32,,,left,,images2/image60.png,158.7426,caucasian,1,,,faces-exp-v1,,2,,2024.2.4,,156.5076,,faces-exp-v1,,,,unknown,0,2025-10-10_13h13.24.603,new,59,,2.2027,34,,
﻿normal,1,,,160.2608,160.7612,756213,,2025-10-10_13h12.34.582,59.88023952,,,,,,,35,,28,756213,1,Win32,,,right,,images2/image10.jpeg,160.2607,caucasian,1,,,faces-exp-v1,,2,,2024.2.4,,159.2443,,faces-exp-v1,,,,famous,0,2025-10-10_13h13.24.603,old,9,,0.9916,35,,
﻿flipped,1,,,163.1637,163.6641,756213,,2025-10-10_13h12.34.582,59.88023952,,,,,,,36,,28,756213,1,Win32,,,right,,images2/image5.jpeg,163.1637,afrikan,1,,,faces-exp-v1,,2,,2024.2.4,,160.7624,,faces-exp-v1,,,,famous,0,2025-10-10_13h13.24.603,old,4,,2.3775,36,,
﻿normal,1,,,165.7165,166.2165,756213,,2025-10-10_13h12.34.582,59.88023952,,,,,,,37,,28,756213,1,Win32,,,left,,images2/image46.png,165.7164,caucasian,1,,,faces-exp-v1,,2,,2024.2.4,,163.6654,,faces-exp-v1,,,,famous,0,2025-10-10_13h13.24.603,new,45,,2.0193,37,,
﻿flipped,1,,,167.5349,168.0351,756213,,2025-10-10_13h12.34.582,59.88023952,,,,,,,38,,28,756213,1,Win32,,,left,,images2/image29.png,167.5347,caucasian,1,,,faces-exp-v1,,2,,2024.2.4,,166.2177,,faces-exp-v1,,,,unknown,0,2025-10-10_13h13.24.603,old,28,,1.2855,38,,
﻿flipped,1,,,171.2051,171.7054,756213,,2025-10-10_13h12.34.582,59.88023952,,,,,,,39,,28,756213,1,Win32,,,left,,images2/image7.png,171.2051,afrikan,1,,,faces-exp-v1,,2,,2024.2.4,,168.0362,,faces-exp-v1,,,,famous,0,2025-10-10_13h13.24.603,old,6,,3.1432,39,,
﻿flipped,1,,,173.3405,173.8409,756213,,2025-10-10_13h12.34.582,59.88023952,,,,,,,40,,28,756213,1,Win32,,,right,,images2/image15.png,173.3405,caucasian,1,,,faces-exp-v1,,2,,2024.2.4,,171.7068,,faces-exp-v1,,,,famous,0,2025-10-10_13h13.24.603,old,14,,1.6094,40,,
﻿normal,1,,,174.9088,175.4093,756213,,2025-10-10_13h12.34.582,59.88023952,,,,,,,41,,28,756213,1,Win32,,,left,,images2/image58.png,174.9088,caucasian,1,,,faces-exp-v1,,2,,2024.2.4,,173.8419,,faces-exp-v1,,,,unknown,0,2025-10-10_13h13.24.603,new,57,,1.0417,41,,
﻿flipped,1,,,179.8978,180.3978,756213,,2025-10-10_13h12.34.582,59.88023952,,,,,,,42,,28,756213,1,Win32,,,left,,images2/image24.png,179.8977,afrikan,1,,,faces-exp-v1,,2,,2024.2.4,,175.4112,,faces-exp-v1,,,,unknown,0,2025-10-10_13h13.24.603,old,23,,4.4562,42,,
﻿flipped,1,,,181.3651,181.8658,756213,,2025-10-10_13h12.34.582,59.88023952,,,,,,,43,,28,756213,1,Win32,,,right,,images2/image20.png,181.3651,afrikan,1,,,faces-exp-v1,,2,,2024.2.4,,180.4001,,faces-exp-v1,,,,unknown,0,2025-10-10_13h13.24.603,old,19,,0.9405,43,,
﻿flipped,1,,,183.6513,184.1514,756213,,2025-10-10_13h12.34.582,59.88023952,,,,,,,44,,28,756213,1,Win32,,,right,,images2/image28.jpg,183.6511,caucasian,1,,,faces-exp-v1,,2,,2024.2.4,,181.869,,faces-exp-v1,,,,unknown,0,2025-10-10_13h13.24.603,old,27,,1.7335,44,,
﻿normal,1,,,186.8215,187.3214,756213,,2025-10-10_13h12.34.582,59.88023952,,,,,,,45,,28,756213,1,Win32,,,left,,images2/image22.png,186.8213,afrikan,1,,,faces-exp-v1,,2,,2024.2.4,,184.1536,,faces-exp-v1,,,,unknown,0,2025-10-10_13h13.24.603,old,21,,2.6424,45,,
﻿normal,1,,,189.9579,190.4579,756213,,2025-10-10_13h12.34.582,59.88023952,,,,,,,46,,28,756213,1,Win32,,,left,,images2/image32.png,189.9578,caucasian,1,,,faces-exp-v1,,2,,2024.2.4,,187.3235,,faces-exp-v1,,,,unknown,0,2025-10-10_13h13.24.603,old,31,,2.6097,46,,
﻿flipped,1,,,192.6266,193.1273,756213,,2025-10-10_13h12.34.582,59.88023952,,,,,,,47,,28,756213,1,Win32,,,right,,images2/image26.jpg,192.6265,caucasian,1,,,faces-exp-v1,,2,,2024.2.4,,190.4605,,faces-exp-v1,,,,unknown,0,2025-10-10_13h13.24.603,old,25,,2.1367,47,,
﻿normal,1,,,194.2615,194.7618,756213,,2025-10-10_13h12.34.582,59.88023952,,,,,,,48,,28,756213,1,Win32,,,left,,images2/image54.png,194.2614,afrikan,1,,,faces-exp-v1,,2,,2024.2.4,,193.1293,,faces-exp-v1,,,,unknown,0,2025-10-10_13h13.24.603,new,53,,1.1076,48,,
﻿normal,1,,,196.4806,196.9809,756213,,2025-10-10_13h12.34.582,59.88023952,,,,,,,49,,28,756213,1,Win32,,,right,,images2/image1.png,196.4805,afrikan,1,,,faces-exp-v1,,2,,2024.2.4,,194.7625,,faces-exp-v1,,,,famous,0,2025-10-10_13h13.24.603,old,0,,1.6888,49,,
﻿flipped,1,,,198.1493,198.6492,756213,,2025-10-10_13h12.34.582,59.88023952,,,,,,,50,,28,756213,1,Win32,,,left,,images2/image47.png,198.1492,caucasian,1,,,faces-exp-v1,,2,,2024.2.4,,196.983,,faces-exp-v1,,,,famous,0,2025-10-10_13h13.24.603,new,46,,1.1423,50,,
﻿normal,1,,,199.8842,200.3844,756213,,2025-10-10_13h12.34.582,59.88023952,,,,,,,51,,28,756213,1,Win32,,,left,,images2/image40.png,199.8841,afrikan,1,,,faces-exp-v1,,2,,2024.2.4,,198.6512,,faces-exp-v1,,,,famous,0,2025-10-10_13h13.24.603,new,39,,1.21,51,,
﻿normal,1,,,202.4872,202.9869,756213,,2025-10-10_13h12.34.582,59.88023952,,,,,,,52,,28,756213,1,Win32,,,right,,images2/image48.jpeg,202.487,caucasian,1,,,faces-exp-v1,,2,,2024.2.4,,200.3869,,faces-exp-v1,,,,famous,0,2025-10-10_13h13.24.603,new,47,,2.0746,52,,
﻿normal,1,,,203.8382,204.3383,756213,,2025-10-10_13h12.34.582,59.88023952,,,,,,,53,,28,756213,1,Win32,,,left,,images2/image30.png,203.8381,caucasian,1,,,faces-exp-v1,,2,,2024.2.4,,202.9889,,faces-exp-v1,,,,unknown,0,2025-10-10_13h13.24.603,old,29,,0.8183,53,,
﻿normal,1,,,205.9066,206.4067,756213,,2025-10-10_13h12.34.582,59.88023952,,,,,,,54,,28,756213,1,Win32,,,right,,images2/image16.png,205.9065,caucasian,1,,,faces-exp-v1,,2,,2024.2.4,,204.3404,,faces-exp-v1,,,,famous,0,2025-10-10_13h13.24.603,old,15,,1.5367,54,,
﻿normal,1,,,207.3748,207.8752,756213,,2025-10-10_13h12.34.582,59.88023952,,,,,,,55,,28,756213,1,Win32,,,left,,images2/image25.jpg,207.3748,caucasian,1,,,faces-exp-v1,,2,,2024.2.4,,206.4079,,faces-exp-v1,,,,unknown,0,2025-10-10_13h13.24.603,old,24,,0.9241,55,,
﻿flipped,1,,,208.7927,209.2932,756213,,2025-10-10_13h12.34.582,59.88023952,,,,,,,56,,28,756213,1,Win32,,,left,,images2/image55.png,208.7927,afrikan,1,,,faces-exp-v1,,2,,2024.2.4,,207.8763,,faces-exp-v1,,,,unknown,0,2025-10-10_13h13.24.603,new,54,,0.8932,56,,
﻿flipped,1,,,210.9617,211.4621,756213,,2025-10-10_13h12.34.582,59.88023952,,,,,,,57,,28,756213,1,Win32,,,right,,images2/image9.jpeg,210.9617,caucasian,1,,,faces-exp-v1,,2,,2024.2.4,,209.2943,,faces-exp-v1,,,,famous,0,2025-10-10_13h13.24.603,old,8,,1.6475,57,,
﻿flipped,1,,,212.9637,213.4641,756213,,2025-10-10_13h12.34.582,59.88023952,,,,,,,58,,28,756213,1,Win32,,,left,,images2/image44.png,212.9637,caucasian,1,,,faces-exp-v1,,2,,2024.2.4,,211.4632,,faces-exp-v1,,,,famous,0,2025-10-10_13h13.24.603,new,43,,1.479,58,,
﻿normal,1,,,215.2657,215.7664,756213,,2025-10-10_13h12.34.582,59.88023952,,,,,,,59,,28,756213,1,Win32,,,left,,images2/image6.png,215.2657,afrikan,1,,,faces-exp-v1,,2,,2024.2.4,,213.465,,faces-exp-v1,,,,famous,0,2025-10-10_13h13.24.603,old,5,,1.7858,59,,
﻿normal,1,,,217.0178,217.518,756213,,2025-10-10_13h12.34.582,59.88023952,,,,,,,60,,28,756213,1,Win32,,,left,,images2/image38.png,217.0177,afrikan,1,,,faces-exp-v1,,2,,2024.2.4,,215.7675,,faces-exp-v1,,,,famous,0,2025-10-10_13h13.24.603,new,37,,1.2266,60,,
﻿flipped,1,,,218.9694,219.4696,756213,,2025-10-10_13h12.34.582,59.88023952,,,,,,,61,,28,756213,1,Win32,,,left,,images2/image49.png,218.9693,afrikan,1,,,faces-exp-v1,,2,,2024.2.4,,217.5191,,faces-exp-v1,,,,unknown,0,2025-10-10_13h13.24.603,new,48,,1.4266,61,,
﻿normal,1,,,221.7225,222.2228,756213,,2025-10-10_13h12.34.582,59.88023952,,,,,,,62,,28,756213,1,Win32,,,left,,images2/image45.png,221.7225,caucasian,1,,,faces-exp-v1,,2,,2024.2.4,,219.4701,,faces-exp-v1,,,,famous,0,2025-10-10_13h13.24.603,new,44,,2.2338,62,,
﻿flipped,1,,,223.6908,224.191,756213,,2025-10-10_13h12.34.582,59.88023952,,,,,,,63,,28,756213,1,Win32,,,left,,images2/image31.png,223.6908,caucasian,1,,,faces-exp-v1,,2,,2024.2.4,,222.2238,,faces-exp-v1,,,,unknown,0,2025-10-10_13h13.24.603,old,30,,1.4467,63,,
﻿,1,,,,,756213,,2025-10-10_13h12.34.582,59.88023952,,,224.1912,,,,,,28,756213,1,Win32,226.0097,,,,,,,,,,faces-exp-v1,,2,,2024.2.4,,,,faces-exp-v1,,,,,,2025-10-10_13h13.24.603,,,,,,,
﻿,1,,,226.0097,226.5103,756213,,2025-10-10_13h12.34.582,59.88023952,,,,,,,,,28,756213,1,Win32,,,,,,,,,,,faces-exp-v1,,2,,2024.2.4,,,,faces-exp-v1,,,,,,2025-10-10_13h13.24.603,,,,,,,
﻿,1,,229.2636,229.2637,229.7637,756213,,2025-10-10_13h12.34.582,59.88023952,31,0,,0,1,,,,28,756213,1,Win32,,,,0,,,,,,2.6963,faces-exp-v1,226.5316,2,,2024.2.4,,,images2/image44.png,faces-exp-v1,,2,,,,2025-10-10_13h13.24.603,,,2,,,,new | caucasian | ﻿flipped
﻿,1,,236.3871,236.3872,236.8876,756213,,2025-10-10_13h12.34.582,59.88023952,4,1,,0,1,,,,28,756213,1,Win32,,,,1,,,,,,6.5914,faces-exp-v1,229.7668,2,,2024.2.4,,,images2/image5.jpeg,faces-exp-v1,,4,,,,2025-10-10_13h13.24.603,,,2,,,,old | afrikan | ﻿flipped
﻿,1,,242.6597,242.6598,243.1604,756213,,2025-10-10_13h12.34.582,59.88023952,16,2,,0,1,,,,28,756213,1,Win32,,,,2,,,,,,5.7389,faces-exp-v1,236.8895,2,,2024.2.4,,,images2/image18.png,faces-exp-v1,,4,,,,2025-10-10_13h13.24.603,,,4,,,,old | afrikan | ﻿normal
﻿,1,,245.5795,245.5796,246.08,756213,,2025-10-10_13h12.34.582,59.88023952,12,3,,0,1,,,,28,756213,1,Win32,,,,3,,,,,,2.385,faces-exp-v1,243.1622,2,,2024.2.4,,,images2/image13.png,faces-exp-v1,,2,,,,2025-10-10_13h13.24.603,,,2,,,,old | caucasian | ﻿flipped
﻿,1,,248.4154,248.4154,248.9158,756213,,2025-10-10_13h12.34.582,59.88023952,15,4,,0,1,,,,28,756213,1,Win32,,,,4,,,,,,2.3068,faces-exp-v1,246.0819,2,,2024.2.4,,,images2/image16.png,faces-exp-v1,,2,,,,2025-10-10_13h13.24.603,,,2,,,,old | caucasian | ﻿normal
﻿,1,,250.4673,250.4673,250.9678,756213,,2025-10-10_13h12.34.582,59.88023952,25,5,,0,1,,,,28,756213,1,Win32,,,,5,,,,,,1.519,faces-exp-v1,248.9193,2,,2024.2.4,,,images2/image38.png,faces-exp-v1,,3,,,,2025-10-10_13h13.24.603,,,3,,,,new | afrikan | ﻿normal
﻿,1,,254.6886,254.6887,255.1886,756213,,2025-10-10_13h12.34.582,59.88023952,18,6,,0,1,,,,28,756213,1,Win32,,,,6,,,,,,3.6752,faces-exp-v1,250.9708,2,,2024.2.4,,,images2/image25.jpg,faces-exp-v1,,4,,,,2025-10-10_13h13.24.603,,,4,,,,old | caucasian | ﻿normal
﻿,1,,260.1439,260.1441,260.6444,756213,,2025-10-10_13h12.34.582,59.88023952,5,7,,0,1,,,,28,756213,1,Win32,,,,7,,,,,,4.9406,faces-exp-v1,255.189,2,,2024.2.4,,,images2/image6.png,faces-exp-v1,,2,,,,2025-10-10_13h13.24.603,,,2,,,,old | afrikan | ﻿normal
﻿,1,,264.2647,264.2647,264.7652,756213,,2025-10-10_13h12.34.582,59.88023952,19,8,,0,1,,,,28,756213,1,Win32,,,,8,,,,,,3.5598,faces-exp-v1,260.647,2,,2024.2.4,,,images2/image62.jpg,faces-exp-v1,,4,,,,2025-10-10_13h13.24.603,,,4,,,,new | caucasian | ﻿normal
﻿,1,,266.0835,266.0836,266.5838,756213,,2025-10-10_13h12.34.582,59.88023952,6,9,,0,1,,,,28,756213,1,Win32,,,,9,,,,,,1.2835,faces-exp-v1,264.768,2,,2024.2.4,,,images2/image7.png,faces-exp-v1,,1,,,,2025-10-10_13h13.24.603,,,1,,,,old | afrikan | ﻿flipped
﻿,1,,268.2186,268.2187,268.7192,756213,,2025-10-10_13h12.34.582,59.88023952,7,10,,0,1,,,,28,756213,1,Win32,,,,10,,,,,,1.6081,faces-exp-v1,266.5859,2,,2024.2.4,,,images2/image8.png,faces-exp-v1,,2,,,,2025-10-10_13h13.24.603,,,2,,,,old | afrikan | ﻿normal
﻿,1,,273.7075,273.7076,274.2075,756213,,2025-10-10_13h12.34.582,59.88023952,21,11,,0,1,,,,28,756213,1,Win32,,,,11,,,,,,4.9557,faces-exp-v1,268.7226,2,,2024.2.4,,,images2/image34.png,faces-exp-v1,,2,,,,2025-10-10_13h13.24.603,,,2,,,,new | afrikan | ﻿normal
﻿,1,,275.609,275.6091,276.1093,756213,,2025-10-10_13h12.34.582,59.88023952,23,12,,0,1,,,,28,756213,1,Win32,,,,12,,,,,,1.369,faces-exp-v1,274.2098,2,,2024.2.4,,,images2/image36.png,faces-exp-v1,,1,,,,2025-10-10_13h13.24.603,,,1,,,,new | afrikan | ﻿normal
﻿,1,,277.3608,277.3608,277.8612,756213,,2025-10-10_13h12.34.582,59.88023952,33,13,,0,1,,,,28,756213,1,Win32,,,,13,,,,,,1.2209,faces-exp-v1,276.1124,2,,2024.2.4,,,images2/image46.png,faces-exp-v1,,1,,,,2025-10-10_13h13.24.603,,,1,,,,new | caucasian | ﻿normal
﻿,1,,278.979,278.979,279.4796,756213,,2025-10-10_13h12.34.582,59.88023952,13,14,,0,1,,,,28,756213,1,Win32,,,,14,,,,,,1.0932,faces-exp-v1,277.8626,2,,2024.2.4,,,images2/image14.png,faces-exp-v1,,2,,,,2025-10-10_13h13.24.603,,,2,,,,old | caucasian | ﻿flipped
﻿,1,,280.6476,280.6479,281.1482,756213,,2025-10-10_13h12.34.582,59.88023952,8,15,,0,1,,,,28,756213,1,Win32,,,,15,,,,,,1.1367,faces-exp-v1,279.4808,2,,2024.2.4,,,images2/image9.jpeg,faces-exp-v1,,2,,,,2025-10-10_13h13.24.603,,,2,,,,old | caucasian | ﻿flipped
﻿,1,,282.4669,282.4671,282.9667,756213,,2025-10-10_13h12.34.582,59.88023952,32,16,,0,1,,,,28,756213,1,Win32,,,,16,,,,,,1.2902,faces-exp-v1,281.1499,2,,2024.2.4,,,images2/image45.png,faces-exp-v1,,2,,,,2025-10-10_13h13.24.603,,,2,,,,new | caucasian | ﻿normal
﻿,1,,284.4513,284.4516,284.952,756213,,2025-10-10_13h12.34.582,59.88023952,14,17,,0,1,,,,28,756213,1,Win32,,,,17,,,,,,1.4526,faces-exp-v1,282.9686,2,,2024.2.4,,,images2/image15.png,faces-exp-v1,,2,,,,2025-10-10_13h13.24.603,,,2,,,,old | caucasian | ﻿flipped
﻿,1,,286.7539,286.754,287.2539,756213,,2025-10-10_13h12.34.582,59.88023952,2,18,,0,1,,,,28,756213,1,Win32,,,,18,,,,,,1.7712,faces-exp-v1,284.9536,2,,2024.2.4,,,images2/image3.png,faces-exp-v1,,3,,,,2025-10-10_13h13.24.603,,,3,,,,old | afrikan | ﻿normal
﻿,1,,289.0563,289.0564,289.5561,756213,,2025-10-10_13h12.34.582,59.88023952,26,19,,0,1,,,,28,756213,1,Win32,,,,19,,,,,,1.7738,faces-exp-v1,287.2568,2,,2024.2.4,,,images2/image39.png,faces-exp-v1,,2,,,,2025-10-10_13h13.24.603,,,2,,,,new | afrikan | ﻿flipped
﻿,1,,292.1422,292.1422,292.643,756213,,2025-10-10_13h12.34.582,59.88023952,11,20,,0,1,,,,28,756213,1,Win32,,,,20,,,,,,2.5529,faces-exp-v1,289.5593,2,,2024.2.4,,,images2/image12.jpeg,faces-exp-v1,,2,,,,2025-10-10_13h13.24.603,,,2,,,,old | caucasian | ﻿normal
﻿,1,,294.0278,294.0279,294.5281,756213,,2025-10-10_13h12.34.582,59.88023952,0,21,,0,1,,,,28,756213,1,Win32,,,,21,,,,,,1.3521,faces-exp-v1,292.6447,2,,2024.2.4,,,images2/image1.png,faces-exp-v1,,1,,,,2025-10-10_13h13.24.603,,,1,,,,old | afrikan | ﻿normal
﻿,1,,297.1804,297.1804,297.6813,756213,,2025-10-10_13h12.34.582,59.88023952,35,22,,0,1,,,,28,756213,1,Win32,,,,22,,,,,,2.6262,faces-exp-v1,294.5299,2,,2024.2.4,,,images2/image48.jpeg,faces-exp-v1,,2,,,,2025-10-10_13h13.24.603,,,2,,,,new | caucasian | ﻿normal
﻿,1,,300.7346,300.7347,301.235,756213,,2025-10-10_13h12.34.582,59.88023952,17,23,,0,1,,,,28,756213,1,Win32,,,,23,,,,,,3.0262,faces-exp-v1,297.6834,2,,2024.2.4,,,images2/image20.png,faces-exp-v1,,3,,,,2025-10-10_13h13.24.603,,,4,,,,old | afrikan | ﻿flipped
﻿,1,,305.8229,305.823,306.3234,756213,,2025-10-10_13h12.34.582,59.88023952,9,24,,0,1,,,,28,756213,1,Win32,,,,24,,,,,,4.5561,faces-exp-v1,301.2368,2,,2024.2.4,,,images2/image10.jpeg,faces-exp-v1,,2,,,,2025-10-10_13h13.24.603,,,2,,,,old | caucasian | ﻿normal
﻿,1,,307.2571,307.2572,307.7581,756213,,2025-10-10_13h12.34.582,59.88023952,20,25,,0,1,,,,28,756213,1,Win32,,,,25,,,,,,0.9074,faces-exp-v1,306.3274,2,,2024.2.4,,,images2/image33.png,faces-exp-v1,,2,,,,2025-10-10_13h13.24.603,,,2,,,,new | afrikan | ﻿flipped
﻿,1,,308.9096,308.9097,309.4094,756213,,2025-10-10_13h12.34.582,59.88023952,27,26,,0,1,,,,28,756213,1,Win32,,,,26,,,,,,1.1186,faces-exp-v1,307.7616,2,,2024.2.4,,,images2/image40.png,faces-exp-v1,,1,,,,2025-10-10_13h13.24.603,,,1,,,,new | afrikan | ﻿normal
﻿,1,,312.7132,312.7134,313.2134,756213,,2025-10-10_13h12.34.582,59.88023952,28,27,,0,1,,,,28,756213,1,Win32,,,,27,,,,,,3.2716,faces-exp-v1,309.412,2,,2024.2.4,,,images2/image41.png,faces-exp-v1,,2,,,,2025-10-10_13h13.24.603,,,2,,,,new | caucasian | ﻿flipped
﻿,1,,315.4992,315.4992,315.9996,756213,,2025-10-10_13h12.34.582,59.88023952,29,28,,0,1,,,,28,756213,1,Win32,,,,28,,,,,,2.2615,faces-exp-v1,313.2151,2,,2024.2.4,,,images2/image42.png,faces-exp-v1,,2,,,,2025-10-10_13h13.24.603,,,2,,,,new | caucasian | ﻿normal
﻿,1,,320.2873,320.2875,320.7877,756213,,2025-10-10_13h12.34.582,59.88023952,30,29,,0,1,,,,28,756213,1,Win32,,,,29,,,,,,4.2551,faces-exp-v1,316.0014,2,,2024.2.4,,,images2/image43.png,faces-exp-v1,,1,,,,2025-10-10_13h13.24.603,,,1,,,,new | caucasian | ﻿flipped
﻿,1,,321.7053,321.7055,322.2061,756213,,2025-10-10_13h12.34.582,59.88023952,34,30,,0,1,,,,28,756213,1,Win32,,,,30,,,,,,0.8855,faces-exp-v1,320.7894,2,,2024.2.4,,,images2/image47.png,faces-exp-v1,,1,,,,2025-10-10_13h13.24.603,,,1,,,,new | caucasian | ﻿flipped
﻿,1,,323.941,323.941,324.4414,756213,,2025-10-10_13h12.34.582,59.88023952,10,31,,0,1,,,,28,756213,1,Win32,,,,31,,,,,,1.71,faces-exp-v1,322.2079,2,,2024.2.4,,,images2/image11.jpeg,faces-exp-v1,,3,,,,2025-10-10_13h13.24.603,,,3,,,,old | caucasian | ﻿normal
﻿,1,,327.6115,327.6116,328.1117,756213,,2025-10-10_13h12.34.582,59.88023952,1,32,,0,1,,,,28,756213,1,Win32,,,,32,,,,,,3.1378,faces-exp-v1,324.4432,2,,2024.2.4,,,images2/image2.png,faces-exp-v1,,1,,,,2025-10-10_13h13.24.603,,,1,,,,old | afrikan | ﻿flipped
﻿,1,,331.6155,331.6156,332.1157,756213,,2025-10-10_13h12.34.582,59.88023952,24,33,,0,1,,,,28,756213,1,Win32,,,,33,,,,,,3.4732,faces-exp-v1,328.1154,2,,2024.2.4,,,images2/image37.png,faces-exp-v1,,1,,,,2025-10-10_13h13.24.603,,,1,,,,new | afrikan | ﻿flipped
﻿,1,,334.8687,334.8689,335.3691,756213,,2025-10-10_13h12.34.582,59.88023952,22,34,,0,1,,,,28,756213,1,Win32,,,,34,,,,,,2.7169,faces-exp-v1,332.1192,2,,2024.2.4,,,images2/image35.png,faces-exp-v1,,3,,,,2025-10-10_13h13.24.603,,,3,,,,new | afrikan | ﻿flipped
﻿,1,,340.057,340.0571,340.5573,756213,,2025-10-10_13h12.34.582,59.88023952,3,35,,0,1,,,,28,756213,1,Win32,,,,35,,,,,,4.6555,faces-exp-v1,335.3723,2,,2024.2.4,,,images2/image4.jpeg,faces-exp-v1,,1,,,,2025-10-10_13h13.24.603,,,1,,,,old | afrikan | ﻿flipped
﻿,1,,,,,756213,,2025-10-10_13h12.34.582,59.88023952,,,,,,,,340.5582,28,756213,1,Win32,,,,,,,,,,,faces-exp-v1,,2,,2024.2.4,343.5607,,,faces-exp-v1,,,,,,2025-10-10_13h13.24.603,,,,,,,
,,,,,,,,,,,,,,,,,,,,,,,,,,,,,,,,,,,,,,,,,,,,,,,,,,,,,
,,,,,,,,,,,,,,,,,,,,,,,,,,,,,,,,,,,,,,,,,,,,,,,,,,,,,
,,,,,,,,,,,,,,,,,,,,,,,,,,,,,,,,,,,,,,,,,,,,,,,,,,,,,
,,,,,,,,,,,,,,,,,,,,,,,,,,,,,,,,,,,,,,,,,old | caucasian | flipped,old | caucasian | normal,new | caucasian | flipped,new | caucasian | normal,old | afrikan | flipped,old | afrikan | normal,new | afrikan | flipped,new | afrikan | normal,,sum,,,
,,,,,,,,,,,,,,,,,,,,,,,,,,,,,,,,,,,,,,,,,4,4,4,4,3,4,4,4,,31,,,
,,,,,,,,,,,,,,,,,,,,,,,,,,,,,,,,,,,,,,,,,,,,,,,,,,,,,
,,,,,,,,,,,,,,,,,,,,,,,,,,,,,,,,,,,,,,,,sum correct,31,,,,,,,,,,,,
,,,,,,,,,,,,,,,,,,,,,,,,,,,,,,,,,,,,,,,,sum not 4,31,,,,,,,,,,,,
