faceTesting,oldnew,race,isFamous,,faceAsking,options,correctOption,learningLoop.thisRepN,learningLoop.thisTrialN,learningLoop.thisN,learningLoop.thisIndex,testingLoop.thisRepN,testingLoop.thisTrialN,testingLoop.thisN,testingLoop.thisIndex,familiarnessLoop.thisRepN,familiarnessLoop.thisTrialN,familiarnessLoop.thisN,familiarnessLoop.thisIndex,thisRow.t,notes,haskama_2.started,haskama.started,key_resp.started,haskama_2.stopped,Blank500.started,image.started,image.stopped,Blank500.stopped,insLearning.started,insLearning_img.started,key_resp_2.started,insLearning.stopped,learningPic.started,facestudypic.started,learningPic.stopped,insTest.started,insTest_img.started,key_resp_4.started,insTest.stopped,testingPic.started,orientation,facetestpic.started,testkeys.started,testingPic.stopped,testkeys.keys,testkeys.rt,testkeys.duration,insFamiliarness.started,insFamiliarness_img.started,key_resp_5.started,insFamiliarness.stopped,familiarnessPic.started,familiarnessPic_img.started,familiarnessKeys.started,text.started,familiarnessPic.stopped,familiarnessKeys.keys,familiarnessKeys.rt,familiarnessKeys.duration,thankYou.started,text_2.started,text_2.stopped,thankYou.stopped,participant,session,age,"female=""1"""," male=""2""",date,expName,psychopyVersion,frameRate,expStart
,,,,,,,,,,,,,,,,,,,,,,0.0079065,0.1141024,0.1141024,7.7319229,,,,,,,,,,,,,,,,,,,,,,,,,,,,,,,,,,,,,,,,766626,2,22,1,2025-06-12_13h23.33.677,מחקר פסיכולוגי,2024.1.4,None,2025-06-12 13h24.59.309129 +0300,
,,,,,,,,,,,,,,,,,,,,,,,,,,7.7319666,7.7370184,8.2887778,8.2318066,,,,,,,,,,,,,,,,,,,,,,,,,,,,,,,,,,,,766626,2,22,1,2025-06-12_13h23.33.677,מחקר פסיכולוגי,2024.1.4,None,2025-06-12 13h24.59.309129 +0300,
,,,,,,,,,,,,,,,,,,,,,,,,,,,,,,8.2318647,8.2887778,8.2887778,11.7695847,,,,,,,,,,,,,,,,,,,,,,,,,,,,,,,,766626,2,22,1,2025-06-12_13h23.33.677,מחקר פסיכולוגי,2024.1.4,None,2025-06-12 13h24.59.309129 +0300,
,,,,,,,,,,,,,,,,,,,,89.3337628,,,,,,91.2809813,91.2964349,,91.780062,,,,,89.2813976,89.3337628,91.2809298,91.7802228,91.8006636,91.8006636,111.8682408,,,,,,,,,,,,,,,,,,,,,,,,,766626,2,22,1,2025-06-12_13h23.33.677,מחקר פסיכולוגי,2024.1.4,None,2025-06-12 13h24.59.309129 +0300,
,,,,,,,,,,,,,,,,,,,,,,,,,,111.8683069,111.8785824,112.429376,112.363525,,,,,,,,,,,,,,,,,,,,,,,,,,,,,,,,,,,,766626,2,22,1,2025-06-12_13h23.33.677,מחקר פסיכולוגי,2024.1.4,None,2025-06-12 13h24.59.309129 +0300,
images2/image10.png,new,caucasian,famous,,,,,,,,,0,0,0,9,,,,,112.429376,,,,,,116.3049207,116.3107418,116.8471458,116.7979136,,,,,,,,,,,,112.3952038,flipped,112.429376,112.429376,116.2838884,left,3.8492033,None,,,,,,,,,,,,,,,,,766626,2,22,1,2025-06-12_13h23.33.677,מחקר פסיכולוגי,2024.1.4,None,2025-06-12 13h24.59.309129 +0300,
images2/image12.png,new,caucasian,famous,,,,,,,,,0,1,1,11,,,,,116.8471458,,,,,,118.4677979,118.4783678,119.0144791,118.9637966,,,,,,,,,,,,116.799176,flipped,116.8471458,116.8471458,118.4670387,left,1.6150699,None,,,,,,,,,,,,,,,,,766626,2,22,1,2025-06-12_13h23.33.677,מחקר פסיכולוגי,2024.1.4,None,2025-06-12 13h24.59.309129 +0300,
images2/image5.png,new,afrikan,famous,,,,,,,,,0,2,2,4,,,,,119.0144791,,,,,,120.2854443,120.2950717,120.8259427,120.7799643,,,,,,,,,,,,118.9646099,flipped,119.0144791,119.0144791,120.2837615,right,1.251134,None,,,,,,,,,,,,,,,,,766626,2,22,1,2025-06-12_13h23.33.677,מחקר פסיכולוגי,2024.1.4,None,2025-06-12 13h24.59.309129 +0300,
images2/image18.png,new,afrikan,unknown,,,,,,,,,0,3,3,17,,,,,120.8259427,,,,,,122.0344547,122.045252,122.5697217,122.5308799,,,,,,,,,,,,120.780649,flipped,120.8259427,120.8259427,122.0335285,right,1.1959837,None,,,,,,,,,,,,,,,,,766626,2,22,1,2025-06-12_13h23.33.677,מחקר פסיכולוגי,2024.1.4,None,2025-06-12 13h24.59.309129 +0300,
images2/image45.png,old,caucasian,famous,,,,,,,,,0,4,4,44,,,,,122.5697217,,,,,,123.251987,123.2615514,123.805674,123.7480504,,,,,,,,,,,,122.5320749,normal,122.5697217,122.5697217,123.2510389,right,0.6738261,None,,,,,,,,,,,,,,,,,766626,2,22,1,2025-06-12_13h23.33.677,מחקר פסיכולוגי,2024.1.4,None,2025-06-12 13h24.59.309129 +0300,
images2/image24.png,new,afrikan,unknown,,,,,,,,,0,5,5,23,,,,,123.805674,,,,,,125.5186444,125.5286405,126.0323194,126.0142742,,,,,,,,,,,,123.7489512,normal,123.805674,123.805674,125.5178515,left,1.7094602,None,,,,,,,,,,,,,,,,,766626,2,22,1,2025-06-12_13h23.33.677,מחקר פסיכולוגי,2024.1.4,None,2025-06-12 13h24.59.309129 +0300,
images2/image43.png,old,caucasian,famous,,,,,,,,,0,6,6,42,,,,,126.0323194,,,,,,126.7342811,126.745215,127.2935334,127.2307868,,,,,,,,,,,,126.0154222,flipped,126.0323194,126.0323194,126.7332987,right,0.6944746,None,,,,,,,,,,,,,,,,,766626,2,22,1,2025-06-12_13h23.33.677,מחקר פסיכולוגי,2024.1.4,None,2025-06-12 13h24.59.309129 +0300,
images2/image7.png,new,afrikan,famous,,,,,,,,,0,7,7,6,,,,,127.2935334,,,,,,128.1346568,128.1452048,128.6885946,128.6311521,,,,,,,,,,,,127.2319211,flipped,127.2935334,127.2935334,128.133716,left,0.8339246,None,,,,,,,,,,,,,,,,,766626,2,22,1,2025-06-12_13h23.33.677,מחקר פסיכולוגי,2024.1.4,None,2025-06-12 13h24.59.309129 +0300,
images2/image30.png,new,caucasian,unknown,,,,,,,,,0,8,8,29,,,,,128.6885946,,,,,,131.1848459,131.1951411,131.6991216,131.6805391,,,,,,,,,,,,128.6321138,normal,128.6885946,128.6885946,131.1839192,right,2.4867605,None,,,,,,,,,,,,,,,,,766626,2,22,1,2025-06-12_13h23.33.677,מחקר פסיכולוגי,2024.1.4,None,2025-06-12 13h24.59.309129 +0300,
images2/image57.png,old,caucasian,unknown,,,,,,,,,0,9,9,56,,,,,131.6991216,,,,,,132.9190704,132.9285992,133.4578499,133.4141263,,,,,,,,,,,,131.6816292,flipped,131.6991216,131.6991216,132.9181236,right,1.2144977,None,,,,,,,,,,,,,,,,,766626,2,22,1,2025-06-12_13h23.33.677,מחקר פסיכולוגי,2024.1.4,None,2025-06-12 13h24.59.309129 +0300,
images2/image20.png,new,afrikan,unknown,,,,,,,,,0,10,10,19,,,,,133.4578499,,,,,,134.7836648,134.7951964,135.3470983,135.2811288,,,,,,,,,,,,133.4150717,normal,133.4578499,133.4578499,134.7826698,left,1.3071977,None,,,,,,,,,,,,,,,,,766626,2,22,1,2025-06-12_13h23.33.677,מחקר פסיכולוגי,2024.1.4,None,2025-06-12 13h24.59.309129 +0300,
images2/image8.png,new,afrikan,famous,,,,,,,,,0,11,11,7,,,,,135.3470983,,,,,,137.2508017,137.2614803,137.7763317,137.7480217,,,,,,,,,,,,135.2821788,normal,135.3470983,135.3470983,137.2500499,right,1.8982837,None,,,,,,,,,,,,,,,,,766626,2,22,1,2025-06-12_13h23.33.677,מחקר פסיכולוגי,2024.1.4,None,2025-06-12 13h24.59.309129 +0300,
images2/image60.png,old,caucasian,unknown,,,,,,,,,0,12,12,59,,,,,137.7763317,,,,,,138.8175382,138.8284349,139.3367369,139.3141585,,,,,,,,,,,,137.748947,flipped,137.7763317,137.7763317,138.8166535,right,1.0359938,None,,,,,,,,,,,,,,,,,766626,2,22,1,2025-06-12_13h23.33.677,מחקר פסיכולוגי,2024.1.4,None,2025-06-12 13h24.59.309129 +0300,
images2/image33.png,old,afrikan,famous,,,,,,,,,0,13,13,32,,,,,139.3367369,,,,,,140.4673884,140.478623,141.019246,140.9637809,,,,,,,,,,,,139.3152742,flipped,139.3367369,139.3367369,140.4663389,right,1.1164185,None,,,,,,,,,,,,,,,,,766626,2,22,1,2025-06-12_13h23.33.677,מחקר פסיכולוגי,2024.1.4,None,2025-06-12 13h24.59.309129 +0300,
images2/image29.png,new,caucasian,unknown,,,,,,,,,0,14,14,28,,,,,141.019246,,,,,,141.8171255,141.8281904,142.3303051,142.3134259,,,,,,,,,,,,140.964787,flipped,141.019246,141.019246,141.8162792,right,0.7863422,None,,,,,,,,,,,,,,,,,766626,2,22,1,2025-06-12_13h23.33.677,מחקר פסיכולוגי,2024.1.4,None,2025-06-12 13h24.59.309129 +0300,
images2/image48.png,old,caucasian,famous,,,,,,,,,0,15,15,47,,,,,142.3303051,,,,,,143.017506,143.0281717,143.5715232,143.5137404,,,,,,,,,,,,142.3142343,normal,142.3303051,142.3303051,143.0165729,right,0.6747097,None,,,,,,,,,,,,,,,,,766626,2,22,1,2025-06-12_13h23.33.677,מחקר פסיכולוגי,2024.1.4,None,2025-06-12 13h24.59.309129 +0300,
images2/image14.png,new,caucasian,famous,,,,,,,,,0,16,16,13,,,,,143.5715232,,,,,,144.5683333,144.57822,145.1065393,145.0646265,,,,,,,,,,,,143.5145359,normal,143.5715232,143.5715232,144.5673675,right,0.9850692,None,,,,,,,,,,,,,,,,,766626,2,22,1,2025-06-12_13h23.33.677,מחקר פסיכולוגי,2024.1.4,None,2025-06-12 13h24.59.309129 +0300,
images2/image31.png,new,caucasian,unknown,,,,,,,,,0,17,17,30,,,,,145.1065393,,,,,,145.9674052,145.9784552,146.4835867,146.4638036,,,,,,,,,,,,145.0655392,normal,145.1065393,145.1065393,145.9664725,left,0.8489608,None,,,,,,,,,,,,,,,,,766626,2,22,1,2025-06-12_13h23.33.677,מחקר פסיכולוגי,2024.1.4,None,2025-06-12 13h24.59.309129 +0300,
images2/image55.png,old,afrikan,unknown,,,,,,,,,0,18,18,54,,,,,146.4835867,,,,,,147.8180711,147.8281615,148.3355125,148.3143724,,,,,,,,,,,,146.4646644,flipped,146.4835867,146.4835867,147.8170183,left,1.3220746,None,,,,,,,,,,,,,,,,,766626,2,22,1,2025-06-12_13h23.33.677,מחקר פסיכולוגי,2024.1.4,None,2025-06-12 13h24.59.309129 +0300,
images2/image63.png,old,caucasian,unknown,,,,,,,,,0,19,19,62,,,,,148.3355125,,,,,,149.0333699,149.0447695,149.5491881,149.5301819,,,,,,,,,,,,148.3155723,normal,148.3355125,148.3355125,149.0325867,right,0.6923989,None,,,,,,,,,,,,,,,,,766626,2,22,1,2025-06-12_13h23.33.677,מחקר פסיכולוגי,2024.1.4,None,2025-06-12 13h24.59.309129 +0300,
images2/image46.png,old,caucasian,famous,,,,,,,,,0,20,20,45,,,,,149.5491881,,,,,,150.3679347,150.3782911,150.8855339,150.8638183,,,,,,,,,,,,149.531189,flipped,149.5491881,149.5491881,150.3672031,right,0.8137756,None,,,,,,,,,,,,,,,,,766626,2,22,1,2025-06-12_13h23.33.677,מחקר פסיכולוגי,2024.1.4,None,2025-06-12 13h24.59.309129 +0300,
images2/image41.png,old,caucasian,famous,,,,,,,,,0,21,21,40,,,,,150.8855339,,,,,,151.584122,151.5950373,152.1025302,152.0805991,,,,,,,,,,,,150.8646583,normal,150.8855339,150.8855339,151.5832012,right,0.6843084,None,,,,,,,,,,,,,,,,,766626,2,22,1,2025-06-12_13h23.33.677,מחקר פסיכולוגי,2024.1.4,None,2025-06-12 13h24.59.309129 +0300,
images2/image53.png,old,afrikan,unknown,,,,,,,,,0,22,22,52,,,,,152.1025302,,,,,,153.1834836,153.1944829,153.7352171,153.6806176,,,,,,,,,,,,152.0816466,flipped,152.1025302,152.1025302,153.1826825,right,1.0741324,None,,,,,,,,,,,,,,,,,766626,2,22,1,2025-06-12_13h23.33.677,מחקר פסיכולוגי,2024.1.4,None,2025-06-12 13h24.59.309129 +0300,
images2/image3.png,new,afrikan,famous,,,,,,,,,0,23,23,2,,,,,153.7352171,,,,,,155.1174156,155.1281073,155.6360092,155.613925,,,,,,,,,,,,153.681584,flipped,153.7352171,153.7352171,155.116244,left,1.3698409,None,,,,,,,,,,,,,,,,,766626,2,22,1,2025-06-12_13h23.33.677,מחקר פסיכולוגי,2024.1.4,None,2025-06-12 13h24.59.309129 +0300,
images2/image35.png,old,afrikan,famous,,,,,,,,,0,24,24,34,,,,,155.6360092,,,,,,156.2666035,156.2782276,156.824619,156.7641036,,,,,,,,,,,,155.61504,normal,155.6360092,155.6360092,156.2659595,right,0.6249544,None,,,,,,,,,,,,,,,,,766626,2,22,1,2025-06-12_13h23.33.677,מחקר פסיכולוגי,2024.1.4,None,2025-06-12 13h24.59.309129 +0300,
images2/image19.png,new,afrikan,unknown,,,,,,,,,0,25,25,18,,,,,156.824619,,,,,,159.3501295,159.3614511,159.8701704,159.8471864,,,,,,,,,,,,156.7651942,flipped,156.824619,156.824619,159.3493135,left,2.5104275,None,,,,,,,,,,,,,,,,,766626,2,22,1,2025-06-12_13h23.33.677,מחקר פסיכולוגי,2024.1.4,None,2025-06-12 13h24.59.309129 +0300,
images2/image51.png,old,afrikan,unknown,,,,,,,,,0,26,26,50,,,,,159.8701704,,,,,,160.5663268,160.5778817,161.1384448,161.0631438,,,,,,,,,,,,159.8481415,normal,159.8701704,159.8701704,160.5656149,right,0.6833529,None,,,,,,,,,,,,,,,,,766626,2,22,1,2025-06-12_13h23.33.677,מחקר פסיכולוגי,2024.1.4,None,2025-06-12 13h24.59.309129 +0300,
images2/image59.png,old,caucasian,unknown,,,,,,,,,0,27,27,58,,,,,161.1384448,,,,,,161.9844276,161.99516,162.5345989,162.4808929,,,,,,,,,,,,161.0639733,normal,161.1384448,161.1384448,161.9834316,right,0.8288423,None,,,,,,,,,,,,,,,,,766626,2,22,1,2025-06-12_13h23.33.677,מחקר פסיכולוגי,2024.1.4,None,2025-06-12 13h24.59.309129 +0300,
images2/image38.png,old,afrikan,famous,,,,,,,,,0,28,28,37,,,,,162.5345989,,,,,,163.1334392,163.1447081,163.6832838,163.6298587,,,,,,,,,,,,162.4818199,normal,162.5345989,162.5345989,163.1325012,right,0.5848227,None,,,,,,,,,,,,,,,,,766626,2,22,1,2025-06-12_13h23.33.677,מחקר פסיכולוגי,2024.1.4,None,2025-06-12 13h24.59.309129 +0300,
images2/image6.png,new,afrikan,famous,,,,,,,,,0,29,29,5,,,,,163.6832838,,,,,,165.2669605,165.2779347,165.8339767,165.7639944,,,,,,,,,,,,163.6306908,normal,163.6832838,163.6832838,165.2660647,right,1.5747442,None,,,,,,,,,,,,,,,,,766626,2,22,1,2025-06-12_13h23.33.677,מחקר פסיכולוגי,2024.1.4,None,2025-06-12 13h24.59.309129 +0300,
images2/image26.png,new,caucasian,unknown,,,,,,,,,0,30,30,25,,,,,165.8339767,,,,,,166.9021744,166.9112048,167.4184409,167.3966015,,,,,,,,,,,,165.7649486,flipped,165.8339767,165.8339767,166.9012994,left,1.0637908,None,,,,,,,,,,,,,,,,,766626,2,22,1,2025-06-12_13h23.33.677,מחקר פסיכולוגי,2024.1.4,None,2025-06-12 13h24.59.309129 +0300,
images2/image61.png,old,caucasian,unknown,,,,,,,,,0,31,31,60,,,,,167.4184409,,,,,,168.2003249,168.2113777,168.7513119,168.6967433,,,,,,,,,,,,167.3973856,flipped,167.4184409,167.4184409,168.1994924,right,0.7730847,None,,,,,,,,,,,,,,,,,766626,2,22,1,2025-06-12_13h23.33.677,מחקר פסיכולוגי,2024.1.4,None,2025-06-12 13h24.59.309129 +0300,
images2/image13.png,new,caucasian,famous,,,,,,,,,0,32,32,12,,,,,168.7513119,,,,,,169.8344618,169.8442319,170.3874468,170.330123,,,,,,,,,,,,168.6975706,normal,168.7513119,168.7513119,169.8337561,left,1.0791185,None,,,,,,,,,,,,,,,,,766626,2,22,1,2025-06-12_13h23.33.677,מחקר פסיכולוגי,2024.1.4,None,2025-06-12 13h24.59.309129 +0300,
images2/image9.png,new,caucasian,famous,,,,,,,,,0,33,33,8,,,,,170.3874468,,,,,,171.9665482,171.9777694,172.4825776,172.4628011,,,,,,,,,,,,170.3309117,flipped,170.3874468,170.3874468,171.9656847,left,1.5732819,None,,,,,,,,,,,,,,,,,766626,2,22,1,2025-06-12_13h23.33.677,מחקר פסיכולוגי,2024.1.4,None,2025-06-12 13h24.59.309129 +0300,
images2/image34.png,old,afrikan,famous,,,,,,,,,0,34,34,33,,,,,172.4825776,,,,,,173.3009716,173.3108942,173.8513894,173.7970369,,,,,,,,,,,,172.4636013,normal,172.4825776,172.4825776,173.3000564,right,0.7988831,None,,,,,,,,,,,,,,,,,766626,2,22,1,2025-06-12_13h23.33.677,מחקר פסיכולוגי,2024.1.4,None,2025-06-12 13h24.59.309129 +0300,
images2/image15.png,new,caucasian,famous,,,,,,,,,0,35,35,14,,,,,173.8513894,,,,,,174.7664765,174.777911,175.320671,175.2631641,,,,,,,,,,,,173.7979119,normal,173.8513894,173.8513894,174.7657942,left,0.89961,None,,,,,,,,,,,,,,,,,766626,2,22,1,2025-06-12_13h23.33.677,מחקר פסיכולוגי,2024.1.4,None,2025-06-12 13h24.59.309129 +0300,
images2/image17.png,new,afrikan,unknown,,,,,,,,,0,36,36,16,,,,,175.320671,,,,,,176.6677472,176.6776547,177.2041679,177.1637034,,,,,,,,,,,,175.2639858,normal,175.320671,175.320671,176.6668333,right,1.3278139,None,,,,,,,,,,,,,,,,,766626,2,22,1,2025-06-12_13h23.33.677,מחקר פסיכולוגי,2024.1.4,None,2025-06-12 13h24.59.309129 +0300,
images2/image22.png,new,afrikan,unknown,,,,,,,,,0,37,37,21,,,,,177.2041679,,,,,,180.0676806,180.077835,180.6236253,180.5634265,,,,,,,,,,,,177.1648175,flipped,177.2041679,177.2041679,180.0666214,right,2.8553147,None,,,,,,,,,,,,,,,,,766626,2,22,1,2025-06-12_13h23.33.677,מחקר פסיכולוגי,2024.1.4,None,2025-06-12 13h24.59.309129 +0300,
images2/image1.png,new,afrikan,famous,,,,,,,,,0,38,38,0,,,,,180.6236253,,,,,,181.7504585,181.7607854,182.3048746,182.2469475,,,,,,,,,,,,180.5642722,flipped,180.6236253,180.6236253,181.7495153,left,1.1171228,None,,,,,,,,,,,,,,,,,766626,2,22,1,2025-06-12_13h23.33.677,מחקר פסיכולוגי,2024.1.4,None,2025-06-12 13h24.59.309129 +0300,
images2/image11.png,new,caucasian,famous,,,,,,,,,0,39,39,10,,,,,182.3048746,,,,,,183.115089,183.1271427,183.6310084,183.6136879,,,,,,,,,,,,182.2477904,normal,182.3048746,182.3048746,183.114497,left,0.8001798,None,,,,,,,,,,,,,,,,,766626,2,22,1,2025-06-12_13h23.33.677,מחקר פסיכולוגי,2024.1.4,None,2025-06-12 13h24.59.309129 +0300,
images2/image39.png,old,afrikan,famous,,,,,,,,,0,40,40,38,,,,,183.6310084,,,,,,184.6819053,184.6943926,185.1986254,185.1795217,,,,,,,,,,,,183.6147065,flipped,183.6310084,183.6310084,184.6810482,right,1.0350956,None,,,,,,,,,,,,,,,,,766626,2,22,1,2025-06-12_13h23.33.677,מחקר פסיכולוגי,2024.1.4,None,2025-06-12 13h24.59.309129 +0300,
images2/image52.png,old,afrikan,unknown,,,,,,,,,0,41,41,51,,,,,185.1986254,,,,,,186.0837252,186.09459,186.5998501,186.5791595,,,,,,,,,,,,185.1804586,normal,185.1986254,185.1986254,186.0829725,right,0.8814921,None,,,,,,,,,,,,,,,,,766626,2,22,1,2025-06-12_13h23.33.677,מחקר פסיכולוגי,2024.1.4,None,2025-06-12 13h24.59.309129 +0300,
images2/image50.png,old,afrikan,unknown,,,,,,,,,0,42,42,49,,,,,186.5998501,,,,,,187.4830054,187.4945549,188.0228433,187.9794442,,,,,,,,,,,,186.5801198,normal,186.5998501,186.5998501,187.4821182,right,0.8715959,None,,,,,,,,,,,,,,,,,766626,2,22,1,2025-06-12_13h23.33.677,מחקר פסיכולוגי,2024.1.4,None,2025-06-12 13h24.59.309129 +0300,
images2/image27.png,new,caucasian,unknown,,,,,,,,,0,43,43,26,,,,,188.0228433,,,,,,189.0164936,189.0276657,189.6320439,189.512715,,,,,,,,,,,,187.9804482,normal,188.0228433,188.0228433,189.015757,left,0.9846818,None,,,,,,,,,,,,,,,,,766626,2,22,1,2025-06-12_13h23.33.677,מחקר פסיכולוגי,2024.1.4,None,2025-06-12 13h24.59.309129 +0300,
images2/image28.png,new,caucasian,unknown,,,,,,,,,0,44,44,27,,,,,189.6320439,,,,,,190.7009475,190.7105228,191.2228765,191.1958335,,,,,,,,,,,,189.517269,flipped,189.6320439,189.6320439,190.7001305,left,1.0624735,None,,,,,,,,,,,,,,,,,766626,2,22,1,2025-06-12_13h23.33.677,מחקר פסיכולוגי,2024.1.4,None,2025-06-12 13h24.59.309129 +0300,
images2/image44.png,old,caucasian,famous,,,,,,,,,0,45,45,43,,,,,191.2228765,,,,,,192.0989577,192.1106802,192.6124958,192.5964621,,,,,,,,,,,,191.1966873,flipped,191.2228765,191.2228765,192.0982086,right,0.8584999,None,,,,,,,,,,,,,,,,,766626,2,22,1,2025-06-12_13h23.33.677,מחקר פסיכולוגי,2024.1.4,None,2025-06-12 13h24.59.309129 +0300,
images2/image49.png,old,afrikan,unknown,,,,,,,,,0,46,46,48,,,,,192.6124958,,,,,,193.6837546,193.6941196,194.1962419,194.1799798,,,,,,,,,,,,192.5973935,flipped,192.6124958,192.6124958,193.6829159,right,1.056417,None,,,,,,,,,,,,,,,,,766626,2,22,1,2025-06-12_13h23.33.677,מחקר פסיכולוגי,2024.1.4,None,2025-06-12 13h24.59.309129 +0300,
images2/image42.png,old,caucasian,famous,,,,,,,,,0,47,47,41,,,,,194.1962419,,,,,,195.1330468,195.1440346,195.6943572,195.6302043,,,,,,,,,,,,194.1808647,normal,194.1962419,194.1962419,195.132155,right,0.922384,None,,,,,,,,,,,,,,,,,766626,2,22,1,2025-06-12_13h23.33.677,מחקר פסיכולוגי,2024.1.4,None,2025-06-12 13h24.59.309129 +0300,
images2/image23.png,new,afrikan,unknown,,,,,,,,,0,48,48,22,,,,,195.6943572,,,,,,196.6329899,196.6438042,197.150958,197.1297009,,,,,,,,,,,,195.6311397,flipped,195.6943572,195.6943572,196.6320272,left,0.9219855,None,,,,,,,,,,,,,,,,,766626,2,22,1,2025-06-12_13h23.33.677,מחקר פסיכולוגי,2024.1.4,None,2025-06-12 13h24.59.309129 +0300,
images2/image54.png,old,afrikan,unknown,,,,,,,,,0,49,49,53,,,,,197.150958,,,,,,198.4974688,198.5109606,199.0914035,198.9965627,,,,,,,,,,,,197.1306042,normal,197.150958,197.150958,198.4970706,right,1.3377875,None,,,,,,,,,,,,,,,,,766626,2,22,1,2025-06-12_13h23.33.677,מחקר פסיכולוגי,2024.1.4,None,2025-06-12 13h24.59.309129 +0300,
images2/image25.png,new,caucasian,unknown,,,,,,,,,0,50,50,24,,,,,199.0914035,,,,,,199.7830736,199.7943371,200.3059216,200.2787976,,,,,,,,,,,,198.9976453,normal,199.0914035,199.0914035,199.7822823,left,0.6798283,None,,,,,,,,,,,,,,,,,766626,2,22,1,2025-06-12_13h23.33.677,מחקר פסיכולוגי,2024.1.4,None,2025-06-12 13h24.59.309129 +0300,
images2/image58.png,old,caucasian,unknown,,,,,,,,,0,51,51,57,,,,,200.3059216,,,,,,201.4325388,201.4440773,202.008859,201.9296307,,,,,,,,,,,,200.2794961,normal,200.3059216,200.3059216,201.431747,right,1.1193182,None,,,,,,,,,,,,,,,,,766626,2,22,1,2025-06-12_13h23.33.677,מחקר פסיכולוגי,2024.1.4,None,2025-06-12 13h24.59.309129 +0300,
images2/image56.png,old,afrikan,unknown,,,,,,,,,0,52,52,55,,,,,202.008859,,,,,,203.7164434,203.7273869,204.2839636,204.2126173,,,,,,,,,,,,201.9305312,flipped,202.008859,202.008859,203.715438,left,1.6921807,None,,,,,,,,,,,,,,,,,766626,2,22,1,2025-06-12_13h23.33.677,מחקר פסיכולוגי,2024.1.4,None,2025-06-12 13h24.59.309129 +0300,
images2/image40.png,old,afrikan,famous,,,,,,,,,0,53,53,39,,,,,204.2839636,,,,,,206.5824719,206.5937335,207.1348678,207.0799017,,,,,,,,,,,,204.2136271,flipped,204.2839636,204.2839636,206.5816975,left,2.2836182,None,,,,,,,,,,,,,,,,,766626,2,22,1,2025-06-12_13h23.33.677,מחקר פסיכולוגי,2024.1.4,None,2025-06-12 13h24.59.309129 +0300,
images2/image16.png,new,caucasian,famous,,,,,,,,,0,54,54,15,,,,,207.1348678,,,,,,208.2167268,208.2272646,208.7300291,208.7121652,,,,,,,,,,,,207.0808827,flipped,207.1348678,207.1348678,208.21587,left,1.0639379,None,,,,,,,,,,,,,,,,,766626,2,22,1,2025-06-12_13h23.33.677,מחקר פסיכולוגי,2024.1.4,None,2025-06-12 13h24.59.309129 +0300,
images2/image37.png,old,afrikan,famous,,,,,,,,,0,55,55,36,,,,,208.7300291,,,,,,210.9322091,210.9439845,211.4677944,211.4296392,,,,,,,,,,,,208.7132948,flipped,208.7300291,208.7300291,210.9313843,right,2.1859766,None,,,,,,,,,,,,,,,,,766626,2,22,1,2025-06-12_13h23.33.677,מחקר פסיכולוגי,2024.1.4,None,2025-06-12 13h24.59.309129 +0300,
images2/image21.png,new,afrikan,unknown,,,,,,,,,0,56,56,20,,,,,211.4677944,,,,,,212.3148244,212.3271405,212.866431,212.8130289,,,,,,,,,,,,211.4306287,normal,211.4677944,211.4677944,212.3142251,right,0.8354656,None,,,,,,,,,,,,,,,,,766626,2,22,1,2025-06-12_13h23.33.677,מחקר פסיכולוגי,2024.1.4,None,2025-06-12 13h24.59.309129 +0300,
images2/image4.png,new,afrikan,famous,,,,,,,,,0,57,57,3,,,,,212.866431,,,,,,213.5165419,213.5269828,214.0701736,214.012727,,,,,,,,,,,,212.8140178,normal,212.866431,212.866431,213.5156491,left,0.639746,None,,,,,,,,,,,,,,,,,766626,2,22,1,2025-06-12_13h23.33.677,מחקר פסיכולוגי,2024.1.4,None,2025-06-12 13h24.59.309129 +0300,
images2/image32.png,new,caucasian,unknown,,,,,,,,,0,58,58,31,,,,,214.0701736,,,,,,215.0160518,215.0270701,215.5696156,215.5122963,,,,,,,,,,,,214.0134941,flipped,214.0701736,214.0701736,215.0151897,left,0.9379054,None,,,,,,,,,,,,,,,,,766626,2,22,1,2025-06-12_13h23.33.677,מחקר פסיכולוגי,2024.1.4,None,2025-06-12 13h24.59.309129 +0300,
images2/image2.png,new,afrikan,famous,,,,,,,,,0,59,59,1,,,,,215.5696156,,,,,,216.8168351,216.8268548,217.3292552,217.3113483,,,,,,,,,,,,215.513133,normal,215.5696156,215.5696156,216.815995,left,1.2417237,None,,,,,,,,,,,,,,,,,766626,2,22,1,2025-06-12_13h23.33.677,מחקר פסיכולוגי,2024.1.4,None,2025-06-12 13h24.59.309129 +0300,
images2/image47.png,old,caucasian,famous,,,,,,,,,0,60,60,46,,,,,217.3292552,,,,,,218.1501686,218.1605015,218.6648307,218.6461667,,,,,,,,,,,,217.3119498,flipped,217.3292552,217.3292552,218.1493704,right,0.8132038,None,,,,,,,,,,,,,,,,,766626,2,22,1,2025-06-12_13h23.33.677,מחקר פסיכולוגי,2024.1.4,None,2025-06-12 13h24.59.309129 +0300,
images2/image36.png,old,afrikan,famous,,,,,,,,,0,61,61,35,,,,,218.6648307,,,,,,219.3653509,219.3775115,219.944332,219.8626343,,,,,,,,,,,,218.6470822,normal,218.6648307,218.6648307,219.364566,right,0.6845256,None,,,,,,,,,,,,,,,,,766626,2,22,1,2025-06-12_13h23.33.677,מחקר פסיכולוגי,2024.1.4,None,2025-06-12 13h24.59.309129 +0300,
images2/image62.png,old,caucasian,unknown,,,,,,,,,0,62,62,61,,,,,219.944332,,,,,,220.5828168,220.5936946,221.1216608,221.0798925,,,,,,,,,,,,219.8637069,normal,219.944332,219.944332,220.5820536,right,0.6308472,None,,,,,,,,,,,,,,,,,766626,2,22,1,2025-06-12_13h23.33.677,מחקר פסיכולוגי,2024.1.4,None,2025-06-12 13h24.59.309129 +0300,
images2/image64.png,old,caucasian,unknown,,,,,,,,,0,63,63,63,,,,,221.1216608,,,,,,221.932845,221.9437293,222.4540789,222.4296278,,,,,,,,,,,,221.0807807,flipped,221.1216608,221.1216608,221.9321557,left,0.8076845,None,,,,,,,,,,,,,,,,,766626,2,22,1,2025-06-12_13h23.33.677,מחקר פסיכולוגי,2024.1.4,None,2025-06-12 13h24.59.309129 +0300,
,,,,,,,,,,,,,,,,,,,,,,,,,,,,,,,,,,,,,,,,,,,,,,,,,222.4297966,222.4540789,222.4540789,234.2666065,,,,,,,,,,,,,766626,2,22,1,2025-06-12_13h23.33.677,מחקר פסיכולוגי,2024.1.4,None,2025-06-12 13h24.59.309129 +0300,
,,,,,,,,,,,,,,,,,,,,,,,,,,234.2666878,234.2769024,234.8747374,234.7620252,,,,,,,,,,,,,,,,,,,,,,,,,,,,,,,,,,,,766626,2,22,1,2025-06-12_13h23.33.677,מחקר פסיכולוגי,2024.1.4,None,2025-06-12 13h24.59.309129 +0300,
,,,,old | caucasian | flipped,images2/image43.png,"האדם בתמונה הוא:
1. זמר 
2. שחקן
3. ספורטאי
4. לא מכיר/ה
",1,,,,,,,,,0,0,0,30,234.8747374,,,,,,237.8979161,237.9101331,238.4274592,238.3957698,,,,,,,,,,,,,,,,,,,,,,,,234.8111565,234.8747374,234.8747374,234.8747374,237.8968502,1,3.0077647,None,,,,,766626,2,22,1,2025-06-12_13h23.33.677,מחקר פסיכולוגי,2024.1.4,None,2025-06-12 13h24.59.309129 +0300,
,,,,old | afrikan | normal,images2/image38.png,"האדם בתמונה הוא:
1. זמר 
2. שחקן
3. עתונאי
4. לא מכיר/ה
",3,,,,,,,,,0,1,1,25,238.4274592,,,,,,240.7300985,240.7430541,241.2752715,241.2292982,,,,,,,,,,,,,,,,,,,,,,,,238.3967943,238.4274592,238.4274592,238.4274592,240.7295759,3,2.2950942,None,,,,,766626,2,22,1,2025-06-12_13h23.33.677,מחקר פסיכולוגי,2024.1.4,None,2025-06-12 13h24.59.309129 +0300,
,,,,new | caucasian | flipped,images2/image12.png,"האדם בתמונה הוא:
1. זמר 
2. שחקן
3. ספורטאי
4. לא מכיר/ה
",2,,,,,,,,,0,2,2,11,241.2752715,,,,,,243.6161597,243.6265698,244.1381833,244.1112474,,,,,,,,,,,,,,,,,,,,,,,,241.2302978,241.2752715,241.2752715,241.2752715,243.6151059,2,2.3213225,None,,,,,766626,2,22,1,2025-06-12_13h23.33.677,מחקר פסיכולוגי,2024.1.4,None,2025-06-12 13h24.59.309129 +0300,
,,,,old | afrikan | flipped,images2/image37.png,"האדם בתמונה הוא:
1. זמר 
2. שחקן
3. עתונאי
4. לא מכיר/ה
",1,,,,,,,,,0,3,3,24,244.1381833,,,,,,245.5482678,245.5597576,246.0670968,246.0440069,,,,,,,,,,,,,,,,,,,,,,,,244.1120316,244.1381833,244.1381833,244.1381833,245.5475388,1,1.399254,None,,,,,766626,2,22,1,2025-06-12_13h23.33.677,מחקר פסיכולוגי,2024.1.4,None,2025-06-12 13h24.59.309129 +0300,
,,,,old | caucasian | flipped,images2/image47.png,"האדם בתמונה הוא:
1. זמר 
2. שחקן
3. ספורטאי
4. לא מכיר/ה
",1,,,,,,,,,0,4,4,34,246.0670968,,,,,,247.0970827,247.1095092,247.6986443,247.5939905,,,,,,,,,,,,,,,,,,,,,,,,246.0445942,246.0670968,246.0670968,246.0670968,247.0964049,1,1.0141262,None,,,,,766626,2,22,1,2025-06-12_13h23.33.677,מחקר פסיכולוגי,2024.1.4,None,2025-06-12 13h24.59.309129 +0300,
,,,,new | caucasian | normal,images2/image25.png,"האדם בתמונה הוא:
1. זמר 
2. שחקן
3. ספורטאי
4. לא מכיר/ה
",4,,,,,,,,,0,5,5,18,247.6986443,,,,,,250.8316565,250.843045,251.392478,251.3269037,,,,,,,,,,,,,,,,,,,,,,,,247.5945079,247.6986443,247.6986443,247.6986443,250.8305837,4,3.1294575,None,,,,,766626,2,22,1,2025-06-12_13h23.33.677,מחקר פסיכולוגי,2024.1.4,None,2025-06-12 13h24.59.309129 +0300,
,,,,old | caucasian | normal,images2/image41.png,"האדם בתמונה הוא:
1. זמר 
2. שחקן
3. ספורטאי
4. לא מכיר/ה
",2,,,,,,,,,0,6,6,28,251.392478,,,,,,254.1490958,254.1595971,254.6694441,254.644741,,,,,,,,,,,,,,,,,,,,,,,,251.3272813,251.392478,251.392478,251.392478,254.1483674,2,2.7493162,None,,,,,766626,2,22,1,2025-06-12_13h23.33.677,מחקר פסיכולוגי,2024.1.4,None,2025-06-12 13h24.59.309129 +0300,
,,,,old | afrikan | flipped,images2/image39.png,"האדם בתמונה הוא:
1. זמר 
2. שחקן
3. עתונאי
4. לא מכיר/ה
",2,,,,,,,,,0,7,7,26,254.6694441,,,,,,256.3655734,256.3763061,256.8929168,256.8616578,,,,,,,,,,,,,,,,,,,,,,,,254.6455896,254.6694441,254.6694441,254.6694441,256.3646422,2,1.6885826,None,,,,,766626,2,22,1,2025-06-12_13h23.33.677,מחקר פסיכולוגי,2024.1.4,None,2025-06-12 13h24.59.309129 +0300,
,,,,old | afrikan | normal,images2/image36.png,"האדם בתמונה הוא:
1. זמר 
2. שחקן
3.פוליטיקאי
4. לא מכיר/ה
",1,,,,,,,,,0,8,8,23,256.8929168,,,,,,258.2148673,258.2265929,258.74419,258.712154,,,,,,,,,,,,,,,,,,,,,,,,256.8626044,256.8929168,256.8929168,256.8929168,258.2139991,1,1.3046189,None,,,,,766626,2,22,1,2025-06-12_13h23.33.677,מחקר פסיכולוגי,2024.1.4,None,2025-06-12 13h24.59.309129 +0300,
,,,,old | afrikan | normal,images2/image35.png,"האדם בתמונה הוא:
1. זמר 
2. שחקן
3. פוליטיקאי
4. לא מכיר/ה
",3,,,,,,,,,0,9,9,22,258.74419,,,,,,261.2315301,261.2430681,261.7544097,261.7281229,,,,,,,,,,,,,,,,,,,,,,,,258.713307,258.74419,258.74419,258.74419,261.2306848,3,2.4800561,None,,,,,766626,2,22,1,2025-06-12_13h23.33.677,מחקר פסיכולוגי,2024.1.4,None,2025-06-12 13h24.59.309129 +0300,
,,,,new | afrikan | flipped,images2/image3.png,"האדם בתמונה הוא:
1. זמר 
2. שחקן
3. ספורטאי
4. לא מכיר/ה
",3,,,,,,,,,0,10,10,2,261.7544097,,,,,,265.9654436,265.9762399,266.4891301,266.4621235,,,,,,,,,,,,,,,,,,,,,,,,261.7289033,261.7544097,261.7544097,261.7544097,265.9646648,3,4.2050728,None,,,,,766626,2,22,1,2025-06-12_13h23.33.677,מחקר פסיכולוגי,2024.1.4,None,2025-06-12 13h24.59.309129 +0300,
,,,,new | caucasian | normal,images2/image11.png,"האדם בתמונה הוא:
1. זמר 
2. שחקן
3. ספורטאי
4. לא מכיר/ה
",3,,,,,,,,,0,11,11,10,266.4891301,,,,,,267.8482439,267.8592675,268.3985164,268.3451325,,,,,,,,,,,,,,,,,,,,,,,,266.4632849,266.4891301,266.4891301,266.4891301,267.8473661,3,1.3470086,None,,,,,766626,2,22,1,2025-06-12_13h23.33.677,מחקר פסיכולוגי,2024.1.4,None,2025-06-12 13h24.59.309129 +0300,
,,,,new | afrikan | normal,images2/image8.png,"האדם בתמונה הוא:
1. זמר 
2. שחקן
3. ספורטאי
4. לא מכיר/ה
",2,,,,,,,,,0,12,12,7,268.3985164,,,,,,271.6990566,271.7093257,272.2221047,272.1950828,,,,,,,,,,,,,,,,,,,,,,,,268.3460431,268.3985164,268.3985164,268.3985164,271.6982095,4,3.2951795,None,,,,,766626,2,22,1,2025-06-12_13h23.33.677,מחקר פסיכולוגי,2024.1.4,None,2025-06-12 13h24.59.309129 +0300,
,,,,old | caucasian | normal,images2/image42.png,"האדם בתמונה הוא:
1. זמר 
2. שחקן
3. ספורטאי
4. לא מכיר/ה
",2,,,,,,,,,0,13,13,29,272.2221047,,,,,,274.4642799,274.4759603,275.0111401,274.9617795,,,,,,,,,,,,,,,,,,,,,,,,272.1959067,272.2221047,272.2221047,272.2221047,274.4635493,2,2.2276415,None,,,,,766626,2,22,1,2025-06-12_13h23.33.677,מחקר פסיכולוגי,2024.1.4,None,2025-06-12 13h24.59.309129 +0300,
,,,,new | afrikan | normal,images2/image6.png,"האדם בתמונה הוא:
1. זמר 
2. שחקן
3. ספורטאי
4. לא מכיר/ה
",2,,,,,,,,,0,14,14,5,275.0111401,,,,,,276.3314452,276.3429247,276.8523463,276.8275276,,,,,,,,,,,,,,,,,,,,,,,,274.9627784,275.0111401,275.0111401,275.0111401,276.3306293,2,1.3043459,None,,,,,766626,2,22,1,2025-06-12_13h23.33.677,מחקר פסיכולוגי,2024.1.4,None,2025-06-12 13h24.59.309129 +0300,
,,,,old | caucasian | normal,images2/image48.png,"האדם בתמונה הוא:
1. זמר 
2. שחקן
3. ספורטאי
4. לא מכיר/ה
",2,,,,,,,,,0,15,15,35,276.8523463,,,,,,277.7313912,277.742491,278.2739693,278.2286026,,,,,,,,,,,,,,,,,,,,,,,,276.8282154,276.8523463,276.8523463,276.8523463,277.730655,2,0.8684567,None,,,,,766626,2,22,1,2025-06-12_13h23.33.677,מחקר פסיכולוגי,2024.1.4,None,2025-06-12 13h24.59.309129 +0300,
,,,,new | caucasian | flipped,images2/image10.png,"האדם בתמונה הוא:
1. זמר 
2. שחקן
3. ספורטאי
4. לא מכיר/ה
",2,,,,,,,,,0,16,16,9,278.2739693,,,,,,279.1136585,279.126161,279.6370825,279.6110806,,,,,,,,,,,,,,,,,,,,,,,,278.2296946,278.2739693,278.2739693,278.2739693,279.1128431,2,0.8218569,None,,,,,766626,2,22,1,2025-06-12_13h23.33.677,מחקר פסיכולוגי,2024.1.4,None,2025-06-12 13h24.59.309129 +0300,
,,,,new | caucasian | flipped,images2/image9.png,"האדם בתמונה הוא:
1. זמר 
2. שחקן
3. ספורטאי
4. לא מכיר/ה
",2,,,,,,,,,0,17,17,8,279.6370825,,,,,,280.4990957,280.5089872,281.0245175,280.9954458,,,,,,,,,,,,,,,,,,,,,,,,279.6120538,279.6370825,279.6370825,279.6370825,280.498069,2,0.852332,None,,,,,766626,2,22,1,2025-06-12_13h23.33.677,מחקר פסיכולוגי,2024.1.4,None,2025-06-12 13h24.59.309129 +0300,
,,,,new | afrikan | normal,images2/image2.png,"האדם בתמונה הוא:
1. זמר 
2. שחקן
3. ספורטאי
4. לא מכיר/ה
",1,,,,,,,,,0,18,18,1,281.0245175,,,,,,283.9479303,283.9589895,284.4891735,284.4449875,,,,,,,,,,,,,,,,,,,,,,,,280.9963474,281.0245175,281.0245175,281.0245175,283.9471155,3,2.9073118,None,,,,,766626,2,22,1,2025-06-12_13h23.33.677,מחקר פסיכולוגי,2024.1.4,None,2025-06-12 13h24.59.309129 +0300,
,,,,old | caucasian | flipped,images2/image44.png,"האדם בתמונה הוא:
1. זמר 
2. שחקן
3. ספורטאי
4. לא מכיר/ה
",2,,,,,,,,,0,19,19,31,284.4891735,,,,,,285.3476295,285.3590141,285.8744755,285.8451921,,,,,,,,,,,,,,,,,,,,,,,,284.4458365,284.4891735,284.4891735,284.4891735,285.346846,2,0.84036,None,,,,,766626,2,22,1,2025-06-12_13h23.33.677,מחקר פסיכולוגי,2024.1.4,None,2025-06-12 13h24.59.309129 +0300,
,,,,old | caucasian | flipped,images2/image46.png,"האדם בתמונה הוא:
1. זמר 
2. שחקן
3. ספורטאי
4. לא מכיר/ה
",1,,,,,,,,,0,20,20,33,285.8744755,,,,,,287.013944,287.0259572,287.5506644,287.5113677,,,,,,,,,,,,,,,,,,,,,,,,285.8461473,285.8744755,285.8744755,285.8744755,287.0131828,1,1.1250735,None,,,,,766626,2,22,1,2025-06-12_13h23.33.677,מחקר פסיכולוגי,2024.1.4,None,2025-06-12 13h24.59.309129 +0300,
,,,,new | afrikan | flipped,images2/image18.png,"האדם בתמונה הוא:
1. זמר 
2. שחקן
3. ספורטאי
4. לא מכיר/ה
",4,,,,,,,,,0,21,21,16,287.5506644,,,,,,289.3132084,289.3260555,289.8388586,289.8112027,,,,,,,,,,,,,,,,,,,,,,,,287.512304,287.5506644,287.5506644,287.5506644,289.3125519,4,1.7533729,None,,,,,766626,2,22,1,2025-06-12_13h23.33.677,מחקר פסיכולוגי,2024.1.4,None,2025-06-12 13h24.59.309129 +0300,
,,,,old | afrikan | normal,images2/image34.png,"האדם בתמונה הוא:
1. זמר 
2. שחקן
3. פוליטיקאי
4. לא מכיר/ה
",2,,,,,,,,,0,22,22,21,289.8388586,,,,,,291.6984244,291.708928,292.2246486,292.1949096,,,,,,,,,,,,,,,,,,,,,,,,289.81216,289.8388586,289.8388586,289.8388586,291.6975091,2,1.8541831,None,,,,,766626,2,22,1,2025-06-12_13h23.33.677,מחקר פסיכולוגי,2024.1.4,None,2025-06-12 13h24.59.309129 +0300,
,,,,new | afrikan | flipped,images2/image5.png,"האדם בתמונה הוא:
1. זמר 
2. שחקן
3. ספורטאי
4. לא מכיר/ה
",2,,,,,,,,,0,23,23,4,292.2246486,,,,,,295.3316476,295.3423063,295.8572393,295.8281729,,,,,,,,,,,,,,,,,,,,,,,,292.1958762,292.2246486,292.2246486,292.2246486,295.3307627,1,3.099047,None,,,,,766626,2,22,1,2025-06-12_13h23.33.677,מחקר פסיכולוגי,2024.1.4,None,2025-06-12 13h24.59.309129 +0300,
,,,,old | afrikan | flipped,images2/image33.png,"האדם בתמונה הוא:
1. זמר 
2. שחקן
3.פוליטיקאי
4. לא מכיר/ה
",2,,,,,,,,,0,24,24,20,295.8572393,,,,,,299.7137276,299.7258923,300.2372922,300.2102606,,,,,,,,,,,,,,,,,,,,,,,,295.8289663,295.8572393,295.8572393,295.8572393,299.7129619,2,3.8383063,None,,,,,766626,2,22,1,2025-06-12_13h23.33.677,מחקר פסיכולוגי,2024.1.4,None,2025-06-12 13h24.59.309129 +0300,
,,,,new | caucasian | flipped,images2/image16.png,"האדם בתמונה הוא:
1. זמר 
2. שחקן
3. ספורטאי
4. לא מכיר/ה
",2,,,,,,,,,0,25,25,15,300.2372922,,,,,,301.0641431,301.0757722,301.5913114,301.5609965,,,,,,,,,,,,,,,,,,,,,,,,300.2113091,300.2372922,300.2372922,300.2372922,301.0633091,2,0.821018,None,,,,,766626,2,22,1,2025-06-12_13h23.33.677,מחקר פסיכולוגי,2024.1.4,None,2025-06-12 13h24.59.309129 +0300,
,,,,old | afrikan | flipped,images2/image40.png,"האדם בתמונה הוא:
1. זמר 
2. שחקן
3. עתונאי
4. לא מכיר/ה
",1,,,,,,,,,0,26,26,27,301.5913114,,,,,,302.6662115,302.6755728,303.186158,303.1599935,,,,,,,,,,,,,,,,,,,,,,,,301.5620533,301.5913114,301.5913114,301.5913114,302.6651858,1,1.0698446,None,,,,,766626,2,22,1,2025-06-12_13h23.33.677,מחקר פסיכולוגי,2024.1.4,None,2025-06-12 13h24.59.309129 +0300,
,,,,new | afrikan | normal,images2/image20.png,"האדם בתמונה הוא:
1. זמר 
2. שחקן
3. ספורטאי
4. לא מכיר/ה
",4,,,,,,,,,0,27,27,17,303.186158,,,,,,306.4310076,306.442412,306.9648927,306.9283133,,,,,,,,,,,,,,,,,,,,,,,,303.1607286,303.186158,303.186158,303.186158,306.4301815,4,3.2285785,None,,,,,766626,2,22,1,2025-06-12_13h23.33.677,מחקר פסיכולוגי,2024.1.4,None,2025-06-12 13h24.59.309129 +0300,
,,,,new | caucasian | normal,images2/image14.png,"האדם בתמונה הוא:
1. זמר 
2. שחקן
3. ספורטאי
4. לא מכיר/ה
",2,,,,,,,,,0,28,28,13,306.9648927,,,,,,308.565066,308.5755377,309.0937888,309.0607371,,,,,,,,,,,,,,,,,,,,,,,,306.9292293,306.9648927,306.9648927,306.9648927,308.5641636,2,1.5877765,None,,,,,766626,2,22,1,2025-06-12_13h23.33.677,מחקר פסיכולוגי,2024.1.4,None,2025-06-12 13h24.59.309129 +0300,
,,,,new | caucasian | normal,images2/image13.png,"האדם בתמונה הוא:
1. זמר 
2. שחקן
3. ספורטאי
4. לא מכיר/ה
",2,,,,,,,,,0,29,29,12,309.0937888,,,,,,309.7307275,309.7422247,310.3173985,310.2280039,,,,,,,,,,,,,,,,,,,,,,,,309.0617105,309.0937888,309.0937888,309.0937888,309.7299813,2,0.6263628,None,,,,,766626,2,22,1,2025-06-12_13h23.33.677,מחקר פסיכולוגי,2024.1.4,None,2025-06-12 13h24.59.309129 +0300,
,,,,old | caucasian | normal,images2/image62.png,"האדם בתמונה הוא:
1. זמר 
2. שחקן
3. פוליטיקאי
4. לא מכיר/ה
",4,,,,,,,,,0,30,30,19,310.3173985,,,,,,311.730528,311.7422372,312.2770948,312.2274145,,,,,,,,,,,,,,,,,,,,,,,,310.2290692,310.3173985,310.3173985,310.3173985,311.7296945,4,1.3943557,None,,,,,766626,2,22,1,2025-06-12_13h23.33.677,מחקר פסיכולוגי,2024.1.4,None,2025-06-12 13h24.59.309129 +0300,
,,,,new | afrikan | flipped,images2/image1.png,"האדם בתמונה הוא:
1. זמר
2. שחקן
3. ספורטאי
4. לא מכיר/ה
",1,,,,,,,,,0,31,31,0,312.2770948,,,,,,313.3980399,313.4088753,313.9315466,313.8942954,,,,,,,,,,,,,,,,,,,,,,,,312.228269,312.2770948,312.2770948,312.2770948,313.3972885,1,1.1137578,None,,,,,766626,2,22,1,2025-06-12_13h23.33.677,מחקר פסיכולוגי,2024.1.4,None,2025-06-12 13h24.59.309129 +0300,
,,,,old | caucasian | normal,images2/image45.png,"האדם בתמונה הוא:
1. זמר 
2. שחקן
3. ספורטאי
4. לא מכיר/ה
",2,,,,,,,,,0,32,32,32,313.9315466,,,,,,315.2806988,315.2921215,315.8160261,315.7772544,,,,,,,,,,,,,,,,,,,,,,,,313.8953419,313.9315466,313.9315466,313.9315466,315.2796224,2,1.3405991,None,,,,,766626,2,22,1,2025-06-12_13h23.33.677,מחקר פסיכולוגי,2024.1.4,None,2025-06-12 13h24.59.309129 +0300,
,,,,new | afrikan | flipped,images2/image7.png,"האדם בתמונה הוא:
1. זמר 
2. שחקן
3. ספורטאי
4. לא מכיר/ה
",1,,,,,,,,,0,33,33,6,315.8160261,,,,,,316.7473214,316.7588563,317.2740817,317.2447981,,,,,,,,,,,,,,,,,,,,,,,,315.7781685,315.8160261,315.8160261,315.8160261,316.7464807,1,0.9181505,None,,,,,766626,2,22,1,2025-06-12_13h23.33.677,מחקר פסיכולוגי,2024.1.4,None,2025-06-12 13h24.59.309129 +0300,
,,,,new | caucasian | normal,images2/image15.png,"האדם בתמונה הוא:
1. זמר 
2. שחקן
3. ספורטאי
4. לא מכיר/ה
",2,,,,,,,,,0,34,34,14,317.2740817,,,,,,318.2974341,318.3087818,318.8231078,318.7952207,,,,,,,,,,,,,,,,,,,,,,,,317.2458912,317.2740817,317.2740817,317.2740817,318.2967053,2,1.0187592,None,,,,,766626,2,22,1,2025-06-12_13h23.33.677,מחקר פסיכולוגי,2024.1.4,None,2025-06-12 13h24.59.309129 +0300,
,,,,new | afrikan | normal,images2/image4.png,"האדם בתמונה הוא:
1. זמר 
2. שחקן
3. ספורטאי
4. לא מכיר/ה
",1,,,,,,,,,0,35,35,3,318.8231078,,,,,,323.0475013,323.0587231,323.5587153,323.5446709,,,,,,,,,,,,,,,,,,,,,,,,318.7960476,318.8231078,318.8231078,318.8231078,323.0466908,4,4.2120541,None,,,,,766626,2,22,1,2025-06-12_13h23.33.677,מחקר פסיכולוגי,2024.1.4,None,2025-06-12 13h24.59.309129 +0300,
,,,,,,,,,,,,,,,,,,,,,,,,,,,,,,,,,,,,,,,,,,,,,,,,,,,,,,,,,,,,,323.5449316,323.5587153,326.5588304,326.5435498,766626,2,22,1,2025-06-12_13h23.33.677,מחקר פסיכולוגי,2024.1.4,None,2025-06-12 13h24.59.309129 +0300,
,,,,,,,,,,old | caucasian | flipped,old | caucasian | normal,new | caucasian | flipped,new | caucasian | normal,old | afrikan | flipped,old | afrikan | normal,new | afrikan | flipped,new | afrikan | normal,,sum,,,,,,,,,,,,,,,,,,,,,,,,,,,,,,,,,,,,,,,,,,,,,,,,,,,,,,,
,,,,,,,,,,4,4,4,4,4,4,4,2,,30,,,,,,,,,,,,,,,,,,,,,,,,,,,,,,,,,,,,,,,,,,,,,,,,,,,,,,,
,,,,,,,,,,,,,,,,,,,,,,,,,,,,,,,,,,,,,,,,,,,,,,,,,,,,,,,,,,,,,,,,,,,,,,,,,,
,,,,,,,,,sum correct,28,,,,,,,,,,,,,,,,,,,,,,,,,,,,,,,,,,,,,,,,,,,,,,,,,,,,,,,,,,,,,,,,
,,,,,,,,,sum not 4,30,,,,,,,,,,,,,,,,,,,,,,,,,,,,,,,,,,,,,,,,,,,,,,,,,,,,,,,,,,,,,,,,
