imageLearning,thisN,thisTrialN,thisRepN,faceTesting,oldnew,race,isFamous,testkeys.keys,testkeys.rt,testkeys.duration,faceAsking,,options,correctOption,familiarnessKeys.keys,familiarnessKeys.rt,familiarnessKeys.duration,learningLoop.thisRepN,learningLoop.thisTrialN,learningLoop.thisN,learningLoop.thisIndex,testingLoop.thisRepN,testingLoop.thisTrialN,testingLoop.thisN,testingLoop.thisIndex,familiarnessLoop.thisRepN,familiarnessLoop.thisTrialN,familiarnessLoop.thisN,familiarnessLoop.thisIndex,thisRow.t,notes,haskama_2.started,haskama.started,key_resp.started,haskama_2.stopped,Blank500.started,image.started,image.stopped,Blank500.stopped,insLearning.started,insLearning_img.started,key_resp_2.started,insLearning.stopped,learningPic.started,facestudypic.started,learningPic.stopped,facestudypic.stopped,insTest.started,insTest_img.started,key_resp_4.started,insTest.stopped,orientation,testingPic.started,facetestpic.started,testkeys.started,testingPic.stopped,testingLoop.testkeys.keys,testingLoop.testkeys.rt,testingLoop.testkeys.duration,insFamiliarness.started,insFamiliarness_img.started,key_resp_5.started,insFamiliarness.stopped,familiarnessPic.started,familiarnessPic_img.started,familiarnessKeys.started,text.started,familiarnessPic.stopped,familiarnessLoop.familiarnessKeys.keys,familiarnessLoop.familiarnessKeys.rt,familiarnessLoop.familiarnessKeys.duration,thankYou.started,text_2.started,text_2.stopped,thankYou.stopped,participant,session,age,"female=""1"""," male=""2""",date,expName,psychopyVersion,frameRate,expStart
,,,,,,,,,,,,,,,,,,,,,,,,,,,,,,,,0.0025359,0.0296016,0.0296016,20.3041899,,,,,,,,,,,,,,,,,,,,,,,,,,,,,,,,,,,,,,,,,773374,1,23,1,2025-06-09_12h43.16.796,מחקר פסיכולוגי,2024.2.4,119.9049394,2025-06-09 12h43.37.146746 +0300,
,,,,,,,,,,,,,,,,,,,,,,,,,,,,,,,,,,,,20.3042632,20.3128496,20.8069753,20.7973314,,,,,,,,,,,,,,,,,,,,,,,,,,,,,,,,,,,,,773374,1,23,1,2025-06-09_12h43.16.796,מחקר פסיכולוגי,2024.2.4,119.9049394,2025-06-09 12h43.37.146746 +0300,
,,,,,,,,,,,,,,,,,,,,,,,,,,,,,,,,,,,,,,,,20.7973745,20.8069753,20.8069753,22.6514021,,,,,,,,,,,,,,,,,,,,,,,,,,,,,,,,,773374,1,23,1,2025-06-09_12h43.16.796,מחקר פסיכולוגי,2024.2.4,119.9049394,2025-06-09 12h43.37.146746 +0300,
images2/image6.png,31,31,0,,,,,,,,,,,,,,,0,31,31,5,,,,,,,,,100.171936,,,,,,102.1587765,102.16652,102.6602351,102.6502486,,,,,100.1678364,100.171936,102.1587243,69.6589659,102.6503239,102.6602351,102.6602351,117.7197498,,,,,,,,,,,,,,,,,,,,,,,,,773374,1,23,1,2025-06-09_12h43.16.796,מחקר פסיכולוגי,2024.2.4,119.9049394,2025-06-09 12h43.37.146746 +0300,
,,,,,,,,,,,,,,,,,,,,,,,,,,,,,,,,,,,,117.7198019,117.7245227,118.2572471,118.2084247,,,,,,,,,,,,,,,,,,,,,,,,,,,,,,,,,,,,,773374,1,23,1,2025-06-09_12h43.16.796,מחקר פסיכולוגי,2024.2.4,119.9049394,2025-06-09 12h43.37.146746 +0300,
,0,0,0,images2/image19.png,old,afrikan,unknown,left,3.8184662,None,,,,,,,,,,,,0,0,0,18,,,,,118.2572471,,,,,,122.084657,122.0906954,122.5833783,122.5750143,,,,,,,,,,,,,normal,118.2526512,118.2572471,118.2572471,122.0845289,left,3.8184662,None,,,,,,,,,,,,,,,,,773374,1,23,1,2025-06-09_12h43.16.796,מחקר פסיכולוגי,2024.2.4,119.9049394,2025-06-09 12h43.37.146746 +0300,
,1,1,0,images2/image11.png,old,caucasian,famous,right,1.5433208,None,,,,,,,,,,,,0,1,1,10,,,,,122.5833783,,,,,,124.134951,124.1407527,124.6352413,124.6245957,,,,,,,,,,,,,flipped,122.5793584,122.5833783,122.5833783,124.1348192,right,1.5433208,None,,,,,,,,,,,,,,,,,773374,1,23,1,2025-06-09_12h43.16.796,מחקר פסיכולוגי,2024.2.4,119.9049394,2025-06-09 12h43.37.146746 +0300,
,2,2,0,images2/image3.png,old,afrikan,famous,right,1.5304835,None,,,,,,,,,,,,0,2,2,2,,,,,124.6352413,,,,,,126.169077,126.1739509,126.6734815,126.6581704,,,,,,,,,,,,,flipped,124.6314071,124.6352413,124.6352413,126.1688919,right,1.5304835,None,,,,,,,,,,,,,,,,,773374,1,23,1,2025-06-09_12h43.16.796,מחקר פסיכולוגי,2024.2.4,119.9049394,2025-06-09 12h43.37.146746 +0300,
,3,3,0,images2/image13.png,old,caucasian,famous,right,1.6473791,None,,,,,,,,,,,,0,3,3,12,,,,,126.6734815,,,,,,128.3269385,128.3323012,128.8251809,128.8165064,,,,,,,,,,,,,flipped,126.6694396,126.6734815,126.6734815,128.3268111,right,1.6473791,None,,,,,,,,,,,,,,,,,773374,1,23,1,2025-06-09_12h43.16.796,מחקר פסיכולוגי,2024.2.4,119.9049394,2025-06-09 12h43.37.146746 +0300,
,4,4,0,images2/image12.png,old,caucasian,famous,right,0.7671994,None,,,,,,,,,,,,0,4,4,11,,,,,128.8251809,,,,,,129.6011808,129.6070999,130.1133664,130.0914129,,,,,,,,,,,,,normal,128.8213015,128.8251809,128.8251809,129.6010887,right,0.7671994,None,,,,,,,,,,,,,,,,,773374,1,23,1,2025-06-09_12h43.16.796,מחקר פסיכולוגי,2024.2.4,119.9049394,2025-06-09 12h43.37.146746 +0300,
,5,5,0,images2/image37.png,new,afrikan,famous,left,1.4158504,None,,,,,,,,,,,,0,5,5,36,,,,,130.1133664,,,,,,131.5326441,131.5357633,132.0348148,132.0248209,,,,,,,,,,,,,normal,130.1095918,130.1133664,130.1133664,131.5325396,left,1.4158504,None,,,,,,,,,,,,,,,,,773374,1,23,1,2025-06-09_12h43.16.796,מחקר פסיכולוגי,2024.2.4,119.9049394,2025-06-09 12h43.37.146746 +0300,
,6,6,0,images2/image2.png,old,afrikan,famous,right,1.8806468,None,,,,,,,,,,,,0,6,6,1,,,,,132.0348148,,,,,,133.9176694,133.923696,134.434162,134.407881,,,,,,,,,,,,,flipped,132.0311353,132.0348148,132.0348148,133.9176013,right,1.8806468,None,,,,,,,,,,,,,,,,,773374,1,23,1,2025-06-09_12h43.16.796,מחקר פסיכולוגי,2024.2.4,119.9049394,2025-06-09 12h43.37.146746 +0300,
,7,7,0,images2/image49.png,new,afrikan,unknown,left,1.2361125,None,,,,,,,,,,,,0,7,7,48,,,,,134.434162,,,,,,135.6764964,135.6820613,136.175918,136.1659215,,,,,,,,,,,,,normal,134.4303812,134.434162,134.434162,135.6763438,left,1.2361125,None,,,,,,,,,,,,,,,,,773374,1,23,1,2025-06-09_12h43.16.796,מחקר פסיכולוגי,2024.2.4,119.9049394,2025-06-09 12h43.37.146746 +0300,
,8,8,0,images2/image27.png,old,caucasian,unknown,right,1.1826529,None,,,,,,,,,,,,0,8,8,26,,,,,136.175918,,,,,,137.3675397,137.3738114,137.8816076,137.8583852,,,,,,,,,,,,,normal,136.1718926,136.175918,136.175918,137.3674692,right,1.1826529,None,,,,,,,,,,,,,,,,,773374,1,23,1,2025-06-09_12h43.16.796,מחקר פסיכולוגי,2024.2.4,119.9049394,2025-06-09 12h43.37.146746 +0300,
,9,9,0,images2/image58.png,new,caucasian,unknown,left,1.8436412,None,,,,,,,,,,,,0,9,9,57,,,,,137.8816076,,,,,,139.7341709,139.7401945,140.2326543,140.2242231,,,,,,,,,,,,,flipped,137.8778103,137.8816076,137.8816076,139.7340706,left,1.8436412,None,,,,,,,,,,,,,,,,,773374,1,23,1,2025-06-09_12h43.16.796,מחקר פסיכולוגי,2024.2.4,119.9049394,2025-06-09 12h43.37.146746 +0300,
,10,10,0,images2/image5.png,old,afrikan,famous,right,1.1471628,None,,,,,,,,,,,,0,10,10,4,,,,,140.2326543,,,,,,141.3849052,141.3903084,141.8994049,141.8742981,,,,,,,,,,,,,flipped,140.2287087,140.2326543,140.2326543,141.3847807,right,1.1471628,None,,,,,,,,,,,,,,,,,773374,1,23,1,2025-06-09_12h43.16.796,מחקר פסיכולוגי,2024.2.4,119.9049394,2025-06-09 12h43.37.146746 +0300,
,11,11,0,images2/image47.png,new,caucasian,famous,left,0.9598224,None,,,,,,,,,,,,0,11,11,46,,,,,141.8994049,,,,,,142.8686999,142.8736593,143.3668914,143.3576469,,,,,,,,,,,,,normal,141.8955068,141.8994049,141.8994049,142.8685531,left,0.9598224,None,,,,,,,,,,,,,,,,,773374,1,23,1,2025-06-09_12h43.16.796,מחקר פסיכולוגי,2024.2.4,119.9049394,2025-06-09 12h43.37.146746 +0300,
,12,12,0,images2/image4.png,old,afrikan,famous,right,1.0949565,None,,,,,,,,,,,,0,12,12,3,,,,,143.3668914,,,,,,144.4682215,144.4736655,144.9823816,144.9576532,,,,,,,,,,,,,normal,143.362778,143.3668914,143.3668914,144.4681137,right,1.0949565,None,,,,,,,,,,,,,,,,,773374,1,23,1,2025-06-09_12h43.16.796,מחקר פסיכולוגי,2024.2.4,119.9049394,2025-06-09 12h43.37.146746 +0300,
,13,13,0,images2/image43.png,new,caucasian,famous,left,0.9804166,None,,,,,,,,,,,,0,13,13,42,,,,,144.9823816,,,,,,145.9681806,145.9736842,146.4857398,146.4583697,,,,,,,,,,,,,normal,144.9784441,144.9823816,144.9823816,145.9680791,left,0.9804166,None,,,,,,,,,,,,,,,,,773374,1,23,1,2025-06-09_12h43.16.796,מחקר פסיכולוגי,2024.2.4,119.9049394,2025-06-09 12h43.37.146746 +0300,
,14,14,0,images2/image50.png,new,afrikan,unknown,left,1.3400106,None,,,,,,,,,,,,0,14,14,49,,,,,146.4857398,,,,,,147.8339295,147.8400202,148.354172,148.3248638,,,,,,,,,,,,,normal,146.4819695,146.4857398,146.4857398,147.8338256,left,1.3400106,None,,,,,,,,,,,,,,,,,773374,1,23,1,2025-06-09_12h43.16.796,מחקר פסיכולוגי,2024.2.4,119.9049394,2025-06-09 12h43.37.146746 +0300,
,15,15,0,images2/image33.png,new,afrikan,famous,left,2.7041624,None,,,,,,,,,,,,0,15,15,32,,,,,148.354172,,,,,,151.0676508,151.0735026,151.6191176,151.5581653,,,,,,,,,,,,,flipped,148.3503436,148.354172,148.354172,151.0675277,left,2.7041624,None,,,,,,,,,,,,,,,,,773374,1,23,1,2025-06-09_12h43.16.796,מחקר פסיכולוגי,2024.2.4,119.9049394,2025-06-09 12h43.37.146746 +0300,
,16,16,0,images2/image56.png,new,afrikan,unknown,left,1.1826445,None,,,,,,,,,,,,0,16,16,55,,,,,151.6191176,,,,,,152.8095979,152.8149356,153.3568108,153.3000748,,,,,,,,,,,,,normal,151.6150476,151.6191176,151.6191176,152.8094483,left,1.1826445,None,,,,,,,,,,,,,,,,,773374,1,23,1,2025-06-09_12h43.16.796,מחקר פסיכולוגי,2024.2.4,119.9049394,2025-06-09 12h43.37.146746 +0300,
,17,17,0,images2/image48.png,new,caucasian,famous,left,2.4548585,None,,,,,,,,,,,,0,17,17,47,,,,,153.3568108,,,,,,155.8178865,155.8232702,156.336257,156.3072589,,,,,,,,,,,,,flipped,153.3527569,153.3568108,153.3568108,155.8177794,left,2.4548585,None,,,,,,,,,,,,,,,,,773374,1,23,1,2025-06-09_12h43.16.796,מחקר פסיכולוגי,2024.2.4,119.9049394,2025-06-09 12h43.37.146746 +0300,
,18,18,0,images2/image41.png,new,caucasian,famous,left,1.9245759,None,,,,,,,,,,,,0,18,18,40,,,,,156.336257,,,,,,158.2674223,158.2731326,158.7909684,158.7573587,,,,,,,,,,,,,flipped,156.3317429,156.336257,156.336257,158.267258,left,1.9245759,None,,,,,,,,,,,,,,,,,773374,1,23,1,2025-06-09_12h43.16.796,מחקר פסיכולוגי,2024.2.4,119.9049394,2025-06-09 12h43.37.146746 +0300,
,19,19,0,images2/image28.png,old,caucasian,unknown,right,0.9071787,None,,,,,,,,,,,,0,19,19,27,,,,,158.7909684,,,,,,159.6999161,159.7061564,160.2240564,160.191087,,,,,,,,,,,,,flipped,158.7860217,158.7909684,158.7909684,159.6998445,right,0.9071787,None,,,,,,,,,,,,,,,,,773374,1,23,1,2025-06-09_12h43.16.796,מחקר פסיכולוגי,2024.2.4,119.9049394,2025-06-09 12h43.37.146746 +0300,
,20,20,0,images2/image61.png,new,caucasian,unknown,right,0.9853762,None,,,,,,,,,,,,0,20,20,60,,,,,160.2240564,,,,,,161.2174017,161.2228296,161.7289803,161.7070838,,,,,,,,,,,,,flipped,160.2188764,160.2240564,160.2240564,161.2172592,right,0.9853762,None,,,,,,,,,,,,,,,,,773374,1,23,1,2025-06-09_12h43.16.796,מחקר פסיכולוגי,2024.2.4,119.9049394,2025-06-09 12h43.37.146746 +0300,
,21,21,0,images2/image39.png,new,afrikan,famous,left,1.1236446,None,,,,,,,,,,,,0,21,21,38,,,,,161.7289803,,,,,,162.8587011,162.8643961,163.3718321,163.3493364,,,,,,,,,,,,,normal,161.7252359,161.7289803,161.7289803,162.8585971,left,1.1236446,None,,,,,,,,,,,,,,,,,773374,1,23,1,2025-06-09_12h43.16.796,מחקר פסיכולוגי,2024.2.4,119.9049394,2025-06-09 12h43.37.146746 +0300,
,22,22,0,images2/image40.png,new,afrikan,famous,left,0.9923915,None,,,,,,,,,,,,0,22,22,39,,,,,163.3718321,,,,,,164.3679348,164.3729922,164.8694882,164.8581737,,,,,,,,,,,,,normal,163.3681012,163.3718321,163.3718321,164.3677907,left,0.9923915,None,,,,,,,,,,,,,,,,,773374,1,23,1,2025-06-09_12h43.16.796,מחקר פסיכולוגי,2024.2.4,119.9049394,2025-06-09 12h43.37.146746 +0300,
,23,23,0,images2/image21.png,old,afrikan,unknown,left,1.2581949,None,,,,,,,,,,,,0,23,23,20,,,,,164.8694882,,,,,,166.1344333,166.1398473,166.6989149,166.6244044,,,,,,,,,,,,,normal,164.8661274,164.8694882,164.8694882,166.1343399,left,1.2581949,None,,,,,,,,,,,,,,,,,773374,1,23,1,2025-06-09_12h43.16.796,מחקר פסיכולוגי,2024.2.4,119.9049394,2025-06-09 12h43.37.146746 +0300,
,24,24,0,images2/image59.png,new,caucasian,unknown,left,3.4138895,None,,,,,,,,,,,,0,24,24,58,,,,,166.6989149,,,,,,170.1169933,170.1228328,170.6308653,170.6074548,,,,,,,,,,,,,normal,166.693685,166.6989149,166.6989149,170.1168831,left,3.4138895,None,,,,,,,,,,,,,,,,,773374,1,23,1,2025-06-09_12h43.16.796,מחקר פסיכולוגי,2024.2.4,119.9049394,2025-06-09 12h43.37.146746 +0300,
,25,25,0,images2/image18.png,old,afrikan,unknown,right,1.6983973,None,,,,,,,,,,,,0,25,25,17,,,,,170.6308653,,,,,,172.3337142,172.3392292,172.8357236,172.8240158,,,,,,,,,,,,,flipped,170.6246426,170.6308653,170.6308653,172.3335813,right,1.6983973,None,,,,,,,,,,,,,,,,,773374,1,23,1,2025-06-09_12h43.16.796,מחקר פסיכולוגי,2024.2.4,119.9049394,2025-06-09 12h43.37.146746 +0300,
,26,26,0,images2/image16.png,old,caucasian,famous,right,0.825431,None,,,,,,,,,,,,0,26,26,15,,,,,172.8357236,,,,,,173.6675741,173.6725055,174.1706159,174.1572541,,,,,,,,,,,,,normal,172.832404,172.8357236,172.8357236,173.6674574,right,0.825431,None,,,,,,,,,,,,,,,,,773374,1,23,1,2025-06-09_12h43.16.796,מחקר פסיכולוגי,2024.2.4,119.9049394,2025-06-09 12h43.37.146746 +0300,
,27,27,0,images2/image22.png,old,afrikan,unknown,right,1.3551935,None,,,,,,,,,,,,0,27,27,21,,,,,174.1706159,,,,,,175.5340007,175.5393654,176.0387901,176.023653,,,,,,,,,,,,,normal,174.1671205,174.1706159,174.1706159,175.5338853,right,1.3551935,None,,,,,,,,,,,,,,,,,773374,1,23,1,2025-06-09_12h43.16.796,מחקר פסיכולוגי,2024.2.4,119.9049394,2025-06-09 12h43.37.146746 +0300,
,28,28,0,images2/image8.png,old,afrikan,famous,right,0.7377953,None,,,,,,,,,,,,0,28,28,7,,,,,176.0387901,,,,,,176.7833656,176.7892689,177.2854259,177.2735722,,,,,,,,,,,,,normal,176.0348706,176.0387901,176.0387901,176.7832473,right,0.7377953,None,,,,,,,,,,,,,,,,,773374,1,23,1,2025-06-09_12h43.16.796,מחקר פסיכולוגי,2024.2.4,119.9049394,2025-06-09 12h43.37.146746 +0300,
,29,29,0,images2/image30.png,old,caucasian,unknown,left,0.8801786,None,,,,,,,,,,,,0,29,29,29,,,,,177.2854259,,,,,,178.1748368,178.1809361,178.6777619,178.6656375,,,,,,,,,,,,,normal,177.2814621,177.2854259,177.2854259,178.1747272,left,0.8801786,None,,,,,,,,,,,,,,,,,773374,1,23,1,2025-06-09_12h43.16.796,מחקר פסיכולוגי,2024.2.4,119.9049394,2025-06-09 12h43.37.146746 +0300,
,30,30,0,images2/image15.png,old,caucasian,famous,right,0.7238135,None,,,,,,,,,,,,0,30,30,14,,,,,178.6777619,,,,,,179.4086893,179.414336,179.9116254,179.8985786,,,,,,,,,,,,,flipped,178.6745387,178.6777619,178.6777619,179.4085765,right,0.7238135,None,,,,,,,,,,,,,,,,,773374,1,23,1,2025-06-09_12h43.16.796,מחקר פסיכולוגי,2024.2.4,119.9049394,2025-06-09 12h43.37.146746 +0300,
,31,31,0,images2/image20.png,old,afrikan,unknown,left,0.8494275,None,,,,,,,,,,,,0,31,31,19,,,,,179.9116254,,,,,,180.7678495,180.7721396,181.2673345,181.2570118,,,,,,,,,,,,,normal,179.9080222,179.9116254,179.9116254,180.7677203,left,0.8494275,None,,,,,,,,,,,,,,,,,773374,1,23,1,2025-06-09_12h43.16.796,מחקר פסיכולוגי,2024.2.4,119.9049394,2025-06-09 12h43.37.146746 +0300,
,32,32,0,images2/image24.png,old,afrikan,unknown,left,1.2774827,None,,,,,,,,,,,,0,32,32,23,,,,,181.2673345,,,,,,182.550607,182.5557739,183.0511487,183.0406359,,,,,,,,,,,,,flipped,181.2640082,181.2673345,181.2673345,182.5505076,left,1.2774827,None,,,,,,,,,,,,,,,,,773374,1,23,1,2025-06-09_12h43.16.796,מחקר פסיכולוגי,2024.2.4,119.9049394,2025-06-09 12h43.37.146746 +0300,
,33,33,0,images2/image6.png,old,afrikan,famous,right,0.7547923,None,,,,,,,,,,,,0,33,33,5,,,,,183.0511487,,,,,,183.8090539,183.8137065,184.3077842,184.2990351,,,,,,,,,,,,,normal,183.047955,183.0511487,183.0511487,183.8089568,right,0.7547923,None,,,,,,,,,,,,,,,,,773374,1,23,1,2025-06-09_12h43.16.796,מחקר פסיכולוגי,2024.2.4,119.9049394,2025-06-09 12h43.37.146746 +0300,
,34,34,0,images2/image10.png,old,caucasian,famous,right,0.7335767,None,,,,,,,,,,,,0,34,34,9,,,,,184.3077842,,,,,,185.0500404,185.0557208,185.5677128,185.5409616,,,,,,,,,,,,,flipped,184.3043274,184.3077842,184.3077842,185.0499307,right,0.7335767,None,,,,,,,,,,,,,,,,,773374,1,23,1,2025-06-09_12h43.16.796,מחקר פסיכולוגי,2024.2.4,119.9049394,2025-06-09 12h43.37.146746 +0300,
,35,35,0,images2/image7.png,old,afrikan,famous,right,0.7936401,None,,,,,,,,,,,,0,35,35,6,,,,,185.5677128,,,,,,186.3667642,186.3724621,186.8823258,186.85705,,,,,,,,,,,,,flipped,185.5621889,185.5677128,185.5677128,186.3666592,right,0.7936401,None,,,,,,,,,,,,,,,,,773374,1,23,1,2025-06-09_12h43.16.796,מחקר פסיכולוגי,2024.2.4,119.9049394,2025-06-09 12h43.37.146746 +0300,
,36,36,0,images2/image38.png,new,afrikan,famous,left,0.9490137,None,,,,,,,,,,,,0,36,36,37,,,,,186.8823258,,,,,,187.8343545,187.8388873,188.347945,188.3233307,,,,,,,,,,,,,flipped,186.8784812,186.8823258,186.8823258,187.8342268,left,0.9490137,None,,,,,,,,,,,,,,,,,773374,1,23,1,2025-06-09_12h43.16.796,מחקר פסיכולוגי,2024.2.4,119.9049394,2025-06-09 12h43.37.146746 +0300,
,37,37,0,images2/image35.png,new,afrikan,famous,left,1.3274616,None,,,,,,,,,,,,0,37,37,34,,,,,188.347945,,,,,,189.6835202,189.6889138,190.2034871,190.1734263,,,,,,,,,,,,,flipped,188.3442594,188.347945,188.347945,189.6833718,left,1.3274616,None,,,,,,,,,,,,,,,,,773374,1,23,1,2025-06-09_12h43.16.796,מחקר פסיכולוגי,2024.2.4,119.9049394,2025-06-09 12h43.37.146746 +0300,
,38,38,0,images2/image45.png,new,caucasian,famous,left,0.8531802,None,,,,,,,,,,,,0,38,38,44,,,,,190.2034871,,,,,,191.0594452,191.0638786,191.5755813,191.5481265,,,,,,,,,,,,,normal,190.2003191,190.2034871,190.2034871,191.0593243,left,0.8531802,None,,,,,,,,,,,,,,,,,773374,1,23,1,2025-06-09_12h43.16.796,מחקר פסיכולוגי,2024.2.4,119.9049394,2025-06-09 12h43.37.146746 +0300,
,39,39,0,images2/image63.png,new,caucasian,unknown,left,1.0052672,None,,,,,,,,,,,,0,39,39,62,,,,,191.5755813,,,,,,192.5850683,192.5884716,193.086786,193.0733562,,,,,,,,,,,,,normal,191.5715575,191.5755813,191.5755813,192.5849577,left,1.0052672,None,,,,,,,,,,,,,,,,,773374,1,23,1,2025-06-09_12h43.16.796,מחקר פסיכולוגי,2024.2.4,119.9049394,2025-06-09 12h43.37.146746 +0300,
,40,40,0,images2/image1.png,old,afrikan,famous,right,0.805645,None,,,,,,,,,,,,0,40,40,0,,,,,193.086786,,,,,,193.900753,193.9054496,194.4205599,194.3899106,,,,,,,,,,,,,normal,193.0830623,193.086786,193.086786,193.9006439,right,0.805645,None,,,,,,,,,,,,,,,,,773374,1,23,1,2025-06-09_12h43.16.796,מחקר פסיכולוגי,2024.2.4,119.9049394,2025-06-09 12h43.37.146746 +0300,
,41,41,0,images2/image51.png,new,afrikan,unknown,left,1.1042357,None,,,,,,,,,,,,0,41,41,50,,,,,194.4205599,,,,,,195.5331658,195.5385856,196.0483405,196.0231042,,,,,,,,,,,,,flipped,194.4160378,194.4205599,194.4205599,195.5330571,left,1.1042357,None,,,,,,,,,,,,,,,,,773374,1,23,1,2025-06-09_12h43.16.796,מחקר פסיכולוגי,2024.2.4,119.9049394,2025-06-09 12h43.37.146746 +0300,
,42,42,0,images2/image34.png,new,afrikan,famous,left,1.0089663,None,,,,,,,,,,,,0,42,42,33,,,,,196.0483405,,,,,,197.0660772,197.0720193,197.5928269,197.5563925,,,,,,,,,,,,,flipped,196.0449289,196.0483405,196.0483405,197.0659751,left,1.0089663,None,,,,,,,,,,,,,,,,,773374,1,23,1,2025-06-09_12h43.16.796,מחקר פסיכולוגי,2024.2.4,119.9049394,2025-06-09 12h43.37.146746 +0300,
,43,43,0,images2/image25.png,old,caucasian,unknown,left,0.5818448,None,,,,,,,,,,,,0,43,43,24,,,,,197.5928269,,,,,,198.1832038,198.1885887,198.6917719,198.6731379,,,,,,,,,,,,,flipped,197.5880817,197.5928269,197.5928269,198.1830942,left,0.5818448,None,,,,,,,,,,,,,,,,,773374,1,23,1,2025-06-09_12h43.16.796,מחקר פסיכולוגי,2024.2.4,119.9049394,2025-06-09 12h43.37.146746 +0300,
,44,44,0,images2/image23.png,old,afrikan,unknown,right,1.2056007,None,,,,,,,,,,,,0,44,44,22,,,,,198.6917719,,,,,,199.8999095,199.905015,200.4003087,200.3902003,,,,,,,,,,,,,flipped,198.6864491,198.6917719,198.6917719,199.8996895,right,1.2056007,None,,,,,,,,,,,,,,,,,773374,1,23,1,2025-06-09_12h43.16.796,מחקר פסיכולוגי,2024.2.4,119.9049394,2025-06-09 12h43.37.146746 +0300,
,45,45,0,images2/image9.png,old,caucasian,famous,right,0.7234686,None,,,,,,,,,,,,0,45,45,8,,,,,200.4003087,,,,,,201.132666,201.1382671,201.6489731,201.6236494,,,,,,,,,,,,,normal,200.3962976,200.4003087,200.4003087,201.1325882,right,0.7234686,None,,,,,,,,,,,,,,,,,773374,1,23,1,2025-06-09_12h43.16.796,מחקר פסיכולוגי,2024.2.4,119.9049394,2025-06-09 12h43.37.146746 +0300,
,46,46,0,images2/image46.png,new,caucasian,famous,left,0.7751691,None,,,,,,,,,,,,0,46,46,45,,,,,201.6489731,,,,,,202.4322271,202.4385492,202.9485458,202.9225955,,,,,,,,,,,,,flipped,201.6451496,201.6489731,201.6489731,202.432094,left,0.7751691,None,,,,,,,,,,,,,,,,,773374,1,23,1,2025-06-09_12h43.16.796,מחקר פסיכולוגי,2024.2.4,119.9049394,2025-06-09 12h43.37.146746 +0300,
,47,47,0,images2/image36.png,new,afrikan,famous,left,0.9949838,None,,,,,,,,,,,,0,47,47,35,,,,,202.9485458,,,,,,203.9495727,203.955111,204.4633747,204.4393158,,,,,,,,,,,,,normal,202.9445702,202.9485458,202.9485458,203.9494681,left,0.9949838,None,,,,,,,,,,,,,,,,,773374,1,23,1,2025-06-09_12h43.16.796,מחקר פסיכולוגי,2024.2.4,119.9049394,2025-06-09 12h43.37.146746 +0300,
,48,48,0,images2/image55.png,new,afrikan,unknown,left,0.9502593,None,,,,,,,,,,,,0,48,48,54,,,,,204.4633747,,,,,,205.4167805,205.4216011,205.9319363,205.9060896,,,,,,,,,,,,,normal,204.4595622,204.4633747,204.4633747,205.4166798,left,0.9502593,None,,,,,,,,,,,,,,,,,773374,1,23,1,2025-06-09_12h43.16.796,מחקר פסיכולוגי,2024.2.4,119.9049394,2025-06-09 12h43.37.146746 +0300,
,49,49,0,images2/image53.png,new,afrikan,unknown,left,0.6916328,None,,,,,,,,,,,,0,49,49,52,,,,,205.9319363,,,,,,206.6258755,206.6304126,207.1254942,207.1143135,,,,,,,,,,,,,flipped,205.9281942,205.9319363,205.9319363,206.6257638,left,0.6916328,None,,,,,,,,,,,,,,,,,773374,1,23,1,2025-06-09_12h43.16.796,מחקר פסיכולוגי,2024.2.4,119.9049394,2025-06-09 12h43.37.146746 +0300,
,50,50,0,images2/image32.png,old,caucasian,unknown,right,1.322722,None,,,,,,,,,,,,0,50,50,31,,,,,207.1254942,,,,,,208.4509631,208.4548672,208.9532057,208.939665,,,,,,,,,,,,,flipped,207.122341,207.1254942,207.1254942,208.4508572,right,1.322722,None,,,,,,,,,,,,,,,,,773374,1,23,1,2025-06-09_12h43.16.796,מחקר פסיכולוגי,2024.2.4,119.9049394,2025-06-09 12h43.37.146746 +0300,
,51,51,0,images2/image14.png,old,caucasian,famous,right,0.6631682,None,,,,,,,,,,,,0,51,51,13,,,,,208.9532057,,,,,,209.6246858,209.6298999,210.1417751,210.1147651,,,,,,,,,,,,,normal,208.9498743,208.9532057,208.9532057,209.6245695,right,0.6631682,None,,,,,,,,,,,,,,,,,773374,1,23,1,2025-06-09_12h43.16.796,מחקר פסיכולוגי,2024.2.4,119.9049394,2025-06-09 12h43.37.146746 +0300,
,52,52,0,images2/image54.png,new,afrikan,unknown,left,0.6729583,None,,,,,,,,,,,,0,52,52,53,,,,,210.1417751,,,,,,210.8238641,210.8297646,211.3342636,211.3142568,,,,,,,,,,,,,flipped,210.1379776,210.1417751,210.1417751,210.8237435,left,0.6729583,None,,,,,,,,,,,,,,,,,773374,1,23,1,2025-06-09_12h43.16.796,מחקר פסיכולוגי,2024.2.4,119.9049394,2025-06-09 12h43.37.146746 +0300,
,53,53,0,images2/image26.png,old,caucasian,unknown,left,0.8089097,None,,,,,,,,,,,,0,53,53,25,,,,,211.3342636,,,,,,212.1496719,212.1545151,212.6532993,212.6394804,,,,,,,,,,,,,flipped,211.3300316,211.3342636,211.3342636,212.1495489,left,0.8089097,None,,,,,,,,,,,,,,,,,773374,1,23,1,2025-06-09_12h43.16.796,מחקר פסיכולוגי,2024.2.4,119.9049394,2025-06-09 12h43.37.146746 +0300,
,54,54,0,images2/image17.png,old,afrikan,unknown,left,0.96726,None,,,,,,,,,,,,0,54,54,16,,,,,212.6532993,,,,,,213.6247565,213.6294513,214.1402802,214.1147557,,,,,,,,,,,,,flipped,212.6495423,212.6532993,212.6532993,213.6246396,left,0.96726,None,,,,,,,,,,,,,,,,,773374,1,23,1,2025-06-09_12h43.16.796,מחקר פסיכולוגי,2024.2.4,119.9049394,2025-06-09 12h43.37.146746 +0300,
,55,55,0,images2/image52.png,new,afrikan,unknown,left,0.7166335,None,,,,,,,,,,,,0,55,55,51,,,,,214.1402802,,,,,,214.8653301,214.8714143,215.370521,215.3561719,,,,,,,,,,,,,flipped,214.137101,214.1402802,214.1402802,214.8652164,left,0.7166335,None,,,,,,,,,,,,,,,,,773374,1,23,1,2025-06-09_12h43.16.796,מחקר פסיכולוגי,2024.2.4,119.9049394,2025-06-09 12h43.37.146746 +0300,
,56,56,0,images2/image31.png,old,caucasian,unknown,left,0.7797046,None,,,,,,,,,,,,0,56,56,30,,,,,215.370521,,,,,,216.1572118,216.1629922,216.6717961,216.6475246,,,,,,,,,,,,,normal,215.367091,215.370521,215.370521,216.1570308,left,0.7797046,None,,,,,,,,,,,,,,,,,773374,1,23,1,2025-06-09_12h43.16.796,מחקר פסיכולוגי,2024.2.4,119.9049394,2025-06-09 12h43.37.146746 +0300,
,57,57,0,images2/image57.png,new,caucasian,unknown,left,0.6478294,None,,,,,,,,,,,,0,57,57,56,,,,,216.6717961,,,,,,217.3249159,217.3294322,217.8727131,217.8142925,,,,,,,,,,,,,flipped,216.6679348,216.6717961,216.6717961,217.3247079,left,0.6478294,None,,,,,,,,,,,,,,,,,773374,1,23,1,2025-06-09_12h43.16.796,מחקר פסיכולוגי,2024.2.4,119.9049394,2025-06-09 12h43.37.146746 +0300,
,58,58,0,images2/image62.png,new,caucasian,unknown,right,0.9004926,None,,,,,,,,,,,,0,58,58,61,,,,,217.8727131,,,,,,218.7826929,218.7880263,219.3147408,219.2724572,,,,,,,,,,,,,flipped,217.8684941,217.8727131,217.8727131,218.7825397,right,0.9004926,None,,,,,,,,,,,,,,,,,773374,1,23,1,2025-06-09_12h43.16.796,מחקר פסיכולוגי,2024.2.4,119.9049394,2025-06-09 12h43.37.146746 +0300,
,59,59,0,images2/image60.png,new,caucasian,unknown,left,0.7081636,None,,,,,,,,,,,,0,59,59,59,,,,,219.3147408,,,,,,220.0320443,220.0378358,220.5472505,220.5229917,,,,,,,,,,,,,normal,219.3091135,219.3147408,219.3147408,220.0319321,left,0.7081636,None,,,,,,,,,,,,,,,,,773374,1,23,1,2025-06-09_12h43.16.796,מחקר פסיכולוגי,2024.2.4,119.9049394,2025-06-09 12h43.37.146746 +0300,
,60,60,0,images2/image44.png,new,caucasian,famous,left,1.0514082,None,,,,,,,,,,,,0,60,60,43,,,,,220.5472505,,,,,,221.6071245,221.613093,222.1091748,222.0976716,,,,,,,,,,,,,normal,220.543252,220.5472505,220.5472505,221.6070048,left,1.0514082,None,,,,,,,,,,,,,,,,,773374,1,23,1,2025-06-09_12h43.16.796,מחקר פסיכולוגי,2024.2.4,119.9049394,2025-06-09 12h43.37.146746 +0300,
,61,61,0,images2/image29.png,old,caucasian,unknown,left,1.043456,None,,,,,,,,,,,,0,61,61,28,,,,,222.1091748,,,,,,223.1561367,223.1626185,223.6718639,223.6475287,,,,,,,,,,,,,normal,222.1059191,222.1091748,222.1091748,223.1560444,left,1.043456,None,,,,,,,,,,,,,,,,,773374,1,23,1,2025-06-09_12h43.16.796,מחקר פסיכולוגי,2024.2.4,119.9049394,2025-06-09 12h43.37.146746 +0300,
,62,62,0,images2/image42.png,new,caucasian,famous,left,1.1663108,None,,,,,,,,,,,,0,62,62,41,,,,,223.6718639,,,,,,224.8409087,224.8460744,225.3632426,225.3309978,,,,,,,,,,,,,flipped,223.667999,223.6718639,223.6718639,224.8407544,left,1.1663108,None,,,,,,,,,,,,,,,,,773374,1,23,1,2025-06-09_12h43.16.796,מחקר פסיכולוגי,2024.2.4,119.9049394,2025-06-09 12h43.37.146746 +0300,
,63,63,0,images2/image64.png,new,caucasian,unknown,left,0.5686493,None,,,,,,,,,,,,0,63,63,63,,,,,225.3632426,,,,,,225.9354984,225.9388628,226.4402609,226.4306458,,,,,,,,,,,,,normal,225.3588447,225.3632426,225.3632426,225.9354032,left,0.5686493,None,,,,,,,,,,,,,,,,,773374,1,23,1,2025-06-09_12h43.16.796,מחקר פסיכולוגי,2024.2.4,119.9049394,2025-06-09 12h43.37.146746 +0300,
,,,,,,,,,,,,,,,,,,,,,,,,,,,,,,,,,,,,,,,,,,,,,,,,,,,,,,,,,,,,226.4308775,226.4402609,226.4402609,240.8590926,,,,,,,,,,,,,773374,1,23,1,2025-06-09_12h43.16.796,מחקר פסיכולוגי,2024.2.4,119.9049394,2025-06-09 12h43.37.146746 +0300,
,,,,,,,,,,,,,,,,,,,,,,,,,,,,,,,,,,,,240.8591749,240.8646486,241.4437053,241.3552582,,,,,,,,,,,,,,,,,,,,,,,,,,,,,,,,,,,,,773374,1,23,1,2025-06-09_12h43.16.796,מחקר פסיכולוגי,2024.2.4,119.9049394,2025-06-09 12h43.37.146746 +0300,
,0,0,0,,,,,,,,images2/image42.png,new | caucasian | flipped,"האדם בתמונה הוא:
1. זמר 
2. שחקן
3. ספורטאי
4. לא מכיר/ה
",2,2,2.2745638,None,,,,,,,,,0,0,0,29,241.4437053,,,,,,243.7216741,243.7269647,244.2282419,244.2117665,,,,,,,,,,,,,,,,,,,,,,,,,241.4282679,241.4437053,241.4437053,241.4437053,243.7215677,2,2.2745638,None,,,,,773374,1,23,1,2025-06-09_12h43.16.796,מחקר פסיכולוגי,2024.2.4,119.9049394,2025-06-09 12h43.37.146746 +0300,
,1,1,0,,,,,,,,images2/image3.png,old | afrikan | flipped,"האדם בתמונה הוא:
1. זמר 
2. שחקן
3. ספורטאי
4. לא מכיר/ה
",3,3,2.1208333,None,,,,,,,,,0,1,1,2,244.2282419,,,,,,246.3546107,246.3606252,246.8614126,246.84539,,,,,,,,,,,,,,,,,,,,,,,,,244.2242765,244.2282419,244.2282419,244.2282419,246.3545063,3,2.1208333,None,,,,,773374,1,23,1,2025-06-09_12h43.16.796,מחקר פסיכולוגי,2024.2.4,119.9049394,2025-06-09 12h43.37.146746 +0300,
,2,2,0,,,,,,,,images2/image44.png,new | caucasian | normal,"האדם בתמונה הוא:
1. זמר 
2. שחקן
3. ספורטאי
4. לא מכיר/ה
",2,2,1.4707512,None,,,,,,,,,0,2,2,31,246.8614126,,,,,,248.3373675,248.3436025,248.8419859,248.8287464,,,,,,,,,,,,,,,,,,,,,,,,,246.8576947,246.8614126,246.8614126,246.8614126,248.3372758,2,1.4707512,None,,,,,773374,1,23,1,2025-06-09_12h43.16.796,מחקר פסיכולוגי,2024.2.4,119.9049394,2025-06-09 12h43.37.146746 +0300,
,3,3,0,,,,,,,,images2/image11.png,old | caucasian | flipped,"האדם בתמונה הוא:
1. זמר 
2. שחקן
3. ספורטאי
4. לא מכיר/ה
",3,3,2.7330489,None,,,,,,,,,0,3,3,10,248.8419859,,,,,,251.5793758,251.5853091,252.0910245,252.0701131,,,,,,,,,,,,,,,,,,,,,,,,,248.8384183,248.8419859,248.8419859,248.8419859,251.5792725,3,2.7330489,None,,,,,773374,1,23,1,2025-06-09_12h43.16.796,מחקר פסיכולוגי,2024.2.4,119.9049394,2025-06-09 12h43.37.146746 +0300,
,4,4,0,,,,,,,,images2/image8.png,old | afrikan | normal,"האדם בתמונה הוא:
1. זמר 
2. שחקן
3. ספורטאי
4. לא מכיר/ה
",2,2,2.2208398,None,,,,,,,,,0,4,4,7,252.0910245,,,,,,254.3206715,254.3267526,254.8275884,254.8112545,,,,,,,,,,,,,,,,,,,,,,,,,252.0871779,252.0910245,252.0910245,252.0910245,254.3205863,2,2.2208398,None,,,,,773374,1,23,1,2025-06-09_12h43.16.796,מחקר פסיכולוגי,2024.2.4,119.9049394,2025-06-09 12h43.37.146746 +0300,
,5,5,0,,,,,,,,images2/image15.png,old | caucasian | flipped,"האדם בתמונה הוא:
1. זמר 
2. שחקן
3. ספורטאי
4. לא מכיר/ה
",2,2,1.7046278,None,,,,,,,,,0,5,5,14,254.8275884,,,,,,256.5389069,256.5434332,257.0429936,257.0283624,,,,,,,,,,,,,,,,,,,,,,,,,254.8234821,254.8275884,254.8275884,254.8275884,256.5387839,2,1.7046278,None,,,,,773374,1,23,1,2025-06-09_12h43.16.796,מחקר פסיכולוגי,2024.2.4,119.9049394,2025-06-09 12h43.37.146746 +0300,
,6,6,0,,,,,,,,images2/image4.png,old | afrikan | normal,"האדם בתמונה הוא:
1. זמר 
2. שחקן
3. ספורטאי
4. לא מכיר/ה
",1,4,2.3474119,None,,,,,,,,,0,6,6,3,257.0429936,,,,,,259.3962491,259.4016165,259.9050557,259.8867342,,,,,,,,,,,,,,,,,,,,,,,,,257.0389535,257.0429936,257.0429936,257.0429936,259.3961444,4,2.3474119,None,,,,,773374,1,23,1,2025-06-09_12h43.16.796,מחקר פסיכולוגי,2024.2.4,119.9049394,2025-06-09 12h43.37.146746 +0300,
,7,7,0,,,,,,,,images2/image43.png,new | caucasian | normal,"האדם בתמונה הוא:
1. זמר 
2. שחקן
3. ספורטאי
4. לא מכיר/ה
",1,1,1.9235106,None,,,,,,,,,0,7,7,30,259.9050557,,,,,,261.8377242,261.8433372,262.3481039,262.3280587,,,,,,,,,,,,,,,,,,,,,,,,,259.9011058,259.9050557,259.9050557,259.9050557,261.8376046,1,1.9235106,None,,,,,773374,1,23,1,2025-06-09_12h43.16.796,מחקר פסיכולוגי,2024.2.4,119.9049394,2025-06-09 12h43.37.146746 +0300,
,8,8,0,,,,,,,,images2/image34.png,new | afrikan | flipped,"האדם בתמונה הוא:
1. זמר 
2. שחקן
3. פוליטיקאי
4. לא מכיר/ה
",2,2,1.9315682,None,,,,,,,,,0,8,8,21,262.3481039,,,,,,264.2875177,264.29328,264.7918549,264.7780278,,,,,,,,,,,,,,,,,,,,,,,,,262.3434145,262.3481039,262.3481039,262.3481039,264.2873761,2,1.9315682,None,,,,,773374,1,23,1,2025-06-09_12h43.16.796,מחקר פסיכולוגי,2024.2.4,119.9049394,2025-06-09 12h43.37.146746 +0300,
,9,9,0,,,,,,,,images2/image47.png,new | caucasian | normal,"האדם בתמונה הוא:
1. זמר 
2. שחקן
3. ספורטאי
4. לא מכיר/ה
",1,1,1.4825842,None,,,,,,,,,0,9,9,34,264.7918549,,,,,,266.2796233,266.2850212,266.7873413,266.7699707,,,,,,,,,,,,,,,,,,,,,,,,,264.7883489,264.7918549,264.7918549,264.7918549,266.2794861,1,1.4825842,None,,,,,773374,1,23,1,2025-06-09_12h43.16.796,מחקר פסיכולוגי,2024.2.4,119.9049394,2025-06-09 12h43.37.146746 +0300,
,10,10,0,,,,,,,,images2/image6.png,old | afrikan | normal,"האדם בתמונה הוא:
1. זמר 
2. שחקן
3. ספורטאי
4. לא מכיר/ה
",2,2,2.0517877,None,,,,,,,,,0,10,10,5,266.7873413,,,,,,268.8461826,268.8513474,269.3514388,269.3361702,,,,,,,,,,,,,,,,,,,,,,,,,266.7828328,266.7873413,266.7873413,266.7873413,268.8460587,2,2.0517877,None,,,,,773374,1,23,1,2025-06-09_12h43.16.796,מחקר פסיכולוגי,2024.2.4,119.9049394,2025-06-09 12h43.37.146746 +0300,
,11,11,0,,,,,,,,images2/image46.png,new | caucasian | flipped,"האדם בתמונה הוא:
1. זמר 
2. שחקן
3. ספורטאי
4. לא מכיר/ה
",1,1,1.1257934,None,,,,,,,,,0,11,11,33,269.3514388,,,,,,270.4795631,270.4848299,270.9871003,270.9701713,,,,,,,,,,,,,,,,,,,,,,,,,269.3472849,269.3514388,269.3514388,269.3514388,270.4794566,1,1.1257934,None,,,,,773374,1,23,1,2025-06-09_12h43.16.796,מחקר פסיכולוגי,2024.2.4,119.9049394,2025-06-09 12h43.37.146746 +0300,
,12,12,0,,,,,,,,images2/image5.png,old | afrikan | flipped,"האדם בתמונה הוא:
1. זמר 
2. שחקן
3. ספורטאי
4. לא מכיר/ה
",2,2,1.5637711,None,,,,,,,,,0,12,12,4,270.9871003,,,,,,272.554766,272.5597538,273.0624661,273.0443481,,,,,,,,,,,,,,,,,,,,,,,,,270.9825375,270.9871003,270.9871003,270.9871003,272.5546604,2,1.5637711,None,,,,,773374,1,23,1,2025-06-09_12h43.16.796,מחקר פסיכולוגי,2024.2.4,119.9049394,2025-06-09 12h43.37.146746 +0300,
,13,13,0,,,,,,,,images2/image20.png,old | afrikan | normal,"האדם בתמונה הוא:
1. זמר 
2. שחקן
3. ספורטאי
4. לא מכיר/ה
",4,4,1.6282186,None,,,,,,,,,0,13,13,17,273.0624661,,,,,,274.6946691,274.7009853,275.2051338,275.1862194,,,,,,,,,,,,,,,,,,,,,,,,,273.058642,273.0624661,273.0624661,273.0624661,274.694599,4,1.6282186,None,,,,,773374,1,23,1,2025-06-09_12h43.16.796,מחקר פסיכולוגי,2024.2.4,119.9049394,2025-06-09 12h43.37.146746 +0300,
,14,14,0,,,,,,,,images2/image14.png,old | caucasian | normal,"האדם בתמונה הוא:
1. זמר 
2. שחקן
3. ספורטאי
4. לא מכיר/ה
",2,2,1.4558818,None,,,,,,,,,0,14,14,13,275.2051338,,,,,,276.6706699,276.6761471,277.1781306,277.1599596,,,,,,,,,,,,,,,,,,,,,,,,,275.2010795,275.2051338,275.2051338,275.2051338,276.6705537,2,1.4558818,None,,,,,773374,1,23,1,2025-06-09_12h43.16.796,מחקר פסיכולוגי,2024.2.4,119.9049394,2025-06-09 12h43.37.146746 +0300,
,15,15,0,,,,,,,,images2/image40.png,new | afrikan | normal,"האדם בתמונה הוא:
1. זמר 
2. שחקן
3. עתונאי
4. לא מכיר/ה
",1,1,0.8510516,None,,,,,,,,,0,15,15,27,277.1781306,,,,,,278.0380143,278.0428984,278.5468825,278.528121,,,,,,,,,,,,,,,,,,,,,,,,,277.1739721,277.1781306,277.1781306,277.1781306,278.0379033,1,0.8510516,None,,,,,773374,1,23,1,2025-06-09_12h43.16.796,מחקר פסיכולוגי,2024.2.4,119.9049394,2025-06-09 12h43.37.146746 +0300,
,16,16,0,,,,,,,,images2/image13.png,old | caucasian | flipped,"האדם בתמונה הוא:
1. זמר 
2. שחקן
3. ספורטאי
4. לא מכיר/ה
",2,2,0.9503277,None,,,,,,,,,0,16,16,12,278.5468825,,,,,,279.5048372,279.5096042,280.0094329,279.9940157,,,,,,,,,,,,,,,,,,,,,,,,,278.5426192,278.5468825,278.5468825,278.5468825,279.504731,2,0.9503277,None,,,,,773374,1,23,1,2025-06-09_12h43.16.796,מחקר פסיכולוגי,2024.2.4,119.9049394,2025-06-09 12h43.37.146746 +0300,
,17,17,0,,,,,,,,images2/image39.png,new | afrikan | normal,"האדם בתמונה הוא:
1. זמר 
2. שחקן
3. עתונאי
4. לא מכיר/ה
",2,2,1.2740181,None,,,,,,,,,0,17,17,26,280.0094329,,,,,,281.2881278,281.2927684,281.7868019,281.7761791,,,,,,,,,,,,,,,,,,,,,,,,,280.0051324,280.0094329,280.0094329,280.0094329,281.2880289,2,1.2740181,None,,,,,773374,1,23,1,2025-06-09_12h43.16.796,מחקר פסיכולוגי,2024.2.4,119.9049394,2025-06-09 12h43.37.146746 +0300,
,18,18,0,,,,,,,,images2/image9.png,old | caucasian | normal,"האדם בתמונה הוא:
1. זמר 
2. שחקן
3. ספורטאי
4. לא מכיר/ה
",2,2,1.9585772,None,,,,,,,,,0,18,18,8,281.7868019,,,,,,283.7544679,283.759415,284.2647525,284.2444547,,,,,,,,,,,,,,,,,,,,,,,,,281.783535,281.7868019,281.7868019,281.7868019,283.7543595,2,1.9585772,None,,,,,773374,1,23,1,2025-06-09_12h43.16.796,מחקר פסיכולוגי,2024.2.4,119.9049394,2025-06-09 12h43.37.146746 +0300,
,19,19,0,,,,,,,,images2/image41.png,new | caucasian | flipped,"האדם בתמונה הוא:
1. זמר 
2. שחקן
3. ספורטאי
4. לא מכיר/ה
",2,2,1.1080133,None,,,,,,,,,0,19,19,28,284.2647525,,,,,,285.3793362,285.3843099,285.8890192,285.8682963,,,,,,,,,,,,,,,,,,,,,,,,,284.2603747,284.2647525,284.2647525,284.2647525,285.3792203,2,1.1080133,None,,,,,773374,1,23,1,2025-06-09_12h43.16.796,מחקר פסיכולוגי,2024.2.4,119.9049394,2025-06-09 12h43.37.146746 +0300,
,20,20,0,,,,,,,,images2/image45.png,new | caucasian | normal,"האדם בתמונה הוא:
1. זמר 
2. שחקן
3. ספורטאי
4. לא מכיר/ה
",2,2,0.8127078,None,,,,,,,,,0,20,20,32,285.8890192,,,,,,286.7059322,286.7095363,287.21681,287.193775,,,,,,,,,,,,,,,,,,,,,,,,,285.8848369,285.8890192,285.8890192,285.8890192,286.7057373,2,0.8127078,None,,,,,773374,1,23,1,2025-06-09_12h43.16.796,מחקר פסיכולוגי,2024.2.4,119.9049394,2025-06-09 12h43.37.146746 +0300,
,21,21,0,,,,,,,,images2/image7.png,old | afrikan | flipped,"האדם בתמונה הוא:
1. זמר 
2. שחקן
3. ספורטאי
4. לא מכיר/ה
",1,1,1.2967178,None,,,,,,,,,0,21,21,6,287.21681,,,,,,288.520719,288.5261077,289.0262575,289.0106089,,,,,,,,,,,,,,,,,,,,,,,,,287.2117786,287.21681,287.21681,287.21681,288.5206156,1,1.2967178,None,,,,,773374,1,23,1,2025-06-09_12h43.16.796,מחקר פסיכולוגי,2024.2.4,119.9049394,2025-06-09 12h43.37.146746 +0300,
,22,22,0,,,,,,,,images2/image10.png,old | caucasian | flipped,"האדם בתמונה הוא:
1. זמר 
2. שחקן
3. ספורטאי
4. לא מכיר/ה
",2,2,1.0076943,None,,,,,,,,,0,22,22,9,289.0262575,,,,,,290.0376428,290.0427075,290.5472293,290.5279705,,,,,,,,,,,,,,,,,,,,,,,,,289.0219278,289.0262575,289.0262575,289.0262575,290.037405,2,1.0076943,None,,,,,773374,1,23,1,2025-06-09_12h43.16.796,מחקר פסיכולוגי,2024.2.4,119.9049394,2025-06-09 12h43.37.146746 +0300,
,23,23,0,,,,,,,,images2/image16.png,old | caucasian | normal,"האדם בתמונה הוא:
1. זמר 
2. שחקן
3. ספורטאי
4. לא מכיר/ה
",2,2,0.7386844,None,,,,,,,,,0,23,23,15,290.5472293,,,,,,291.2945947,291.300803,291.8103728,291.7845529,,,,,,,,,,,,,,,,,,,,,,,,,290.5419756,290.5472293,290.5472293,290.5472293,291.2944834,2,0.7386844,None,,,,,773374,1,23,1,2025-06-09_12h43.16.796,מחקר פסיכולוגי,2024.2.4,119.9049394,2025-06-09 12h43.37.146746 +0300,
,24,24,0,,,,,,,,images2/image18.png,old | afrikan | flipped,"האדם בתמונה הוא:
1. זמר 
2. שחקן
3. ספורטאי
4. לא מכיר/ה
",4,4,2.2239678,None,,,,,,,,,0,24,24,16,291.8103728,,,,,,294.0370911,294.0423547,294.5464881,294.5271074,,,,,,,,,,,,,,,,,,,,,,,,,291.8049766,291.8103728,291.8103728,291.8103728,294.0369951,4,2.2239678,None,,,,,773374,1,23,1,2025-06-09_12h43.16.796,מחקר פסיכולוגי,2024.2.4,119.9049394,2025-06-09 12h43.37.146746 +0300,
,25,25,0,,,,,,,,images2/image2.png,old | afrikan | flipped,"האדם בתמונה הוא:
1. זמר 
2. שחקן
3. ספורטאי
4. לא מכיר/ה
",1,1,1.398103,None,,,,,,,,,0,25,25,1,294.5464881,,,,,,295.9542064,295.9593051,296.4610432,296.4441732,,,,,,,,,,,,,,,,,,,,,,,,,294.5424375,294.5464881,294.5464881,294.5464881,295.9540888,1,1.398103,None,,,,,773374,1,23,1,2025-06-09_12h43.16.796,מחקר פסיכולוגי,2024.2.4,119.9049394,2025-06-09 12h43.37.146746 +0300,
,26,26,0,,,,,,,,images2/image38.png,new | afrikan | flipped,"האדם בתמונה הוא:
1. זמר 
2. שחקן
3. עתונאי
4. לא מכיר/ה
",3,3,2.1446256,None,,,,,,,,,0,26,26,25,296.4610432,,,,,,298.6113574,298.6171776,299.1224596,299.1020731,,,,,,,,,,,,,,,,,,,,,,,,,296.4561609,296.4610432,296.4610432,296.4610432,298.6112474,3,2.1446256,None,,,,,773374,1,23,1,2025-06-09_12h43.16.796,מחקר פסיכולוגי,2024.2.4,119.9049394,2025-06-09 12h43.37.146746 +0300,
,27,27,0,,,,,,,,images2/image1.png,old | afrikan | normal,"האדם בתמונה הוא:
1. זמר
2. שחקן
3. ספורטאי
4. לא מכיר/ה
",1,1,1.4499669,None,,,,,,,,,0,27,27,0,299.1224596,,,,,,300.5790185,300.5842609,301.0840961,301.0679775,,,,,,,,,,,,,,,,,,,,,,,,,299.1186854,299.1224596,299.1224596,299.1224596,300.5789225,1,1.4499669,None,,,,,773374,1,23,1,2025-06-09_12h43.16.796,מחקר פסיכולוגי,2024.2.4,119.9049394,2025-06-09 12h43.37.146746 +0300,
,28,28,0,,,,,,,,images2/image37.png,new | afrikan | normal,"האדם בתמונה הוא:
1. זמר 
2. שחקן
3. עתונאי
4. לא מכיר/ה
",1,1,1.545364,None,,,,,,,,,0,28,28,24,301.0840961,,,,,,302.637273,302.64198,303.1423171,303.1273527,,,,,,,,,,,,,,,,,,,,,,,,,301.0799997,301.0840961,301.0840961,301.0840961,302.6371696,1,1.545364,None,,,,,773374,1,23,1,2025-06-09_12h43.16.796,מחקר פסיכולוגי,2024.2.4,119.9049394,2025-06-09 12h43.37.146746 +0300,
,29,29,0,,,,,,,,images2/image48.png,new | caucasian | flipped,"האדם בתמונה הוא:
1. זמר 
2. שחקן
3. ספורטאי
4. לא מכיר/ה
",2,2,1.2423142,None,,,,,,,,,0,29,29,35,303.1423171,,,,,,304.3874785,304.3919753,304.8895779,304.8766019,,,,,,,,,,,,,,,,,,,,,,,,,303.1385566,303.1423171,303.1423171,303.1423171,304.3873618,2,1.2423142,None,,,,,773374,1,23,1,2025-06-09_12h43.16.796,מחקר פסיכולוגי,2024.2.4,119.9049394,2025-06-09 12h43.37.146746 +0300,
,30,30,0,,,,,,,,images2/image12.png,old | caucasian | normal,"האדם בתמונה הוא:
1. זמר 
2. שחקן
3. ספורטאי
4. לא מכיר/ה
",2,2,2.1110919,None,,,,,,,,,0,30,30,11,304.8895779,,,,,,307.0044966,307.0093903,307.5428396,307.4936393,,,,,,,,,,,,,,,,,,,,,,,,,304.8858675,304.8895779,304.8895779,304.8895779,307.0043402,2,2.1110919,None,,,,,773374,1,23,1,2025-06-09_12h43.16.796,מחקר פסיכולוגי,2024.2.4,119.9049394,2025-06-09 12h43.37.146746 +0300,
,31,31,0,,,,,,,,images2/image62.png,new | caucasian | flipped,"האדם בתמונה הוא:
1. זמר 
2. שחקן
3. פוליטיקאי
4. לא מכיר/ה
",4,4,1.6212656,None,,,,,,,,,0,31,31,19,307.5428396,,,,,,309.1699984,309.175246,309.6959834,309.6600021,,,,,,,,,,,,,,,,,,,,,,,,,307.5381504,307.5428396,307.5428396,307.5428396,309.1698425,4,1.6212656,None,,,,,773374,1,23,1,2025-06-09_12h43.16.796,מחקר פסיכולוגי,2024.2.4,119.9049394,2025-06-09 12h43.37.146746 +0300,
,32,32,0,,,,,,,,images2/image36.png,new | afrikan | normal,"האדם בתמונה הוא:
1. זמר 
2. שחקן
3.פוליטיקאי
4. לא מכיר/ה
",1,1,3.2131647,None,,,,,,,,,0,32,32,23,309.6959834,,,,,,312.9106955,312.9167742,313.4475672,313.4021018,,,,,,,,,,,,,,,,,,,,,,,,,309.6923034,309.6959834,309.6959834,309.6959834,312.9106269,1,3.2131647,None,,,,,773374,1,23,1,2025-06-09_12h43.16.796,מחקר פסיכולוגי,2024.2.4,119.9049394,2025-06-09 12h43.37.146746 +0300,
,33,33,0,,,,,,,,images2/image25.png,old | caucasian | flipped,"האדם בתמונה הוא:
1. זמר 
2. שחקן
3. ספורטאי
4. לא מכיר/ה
",4,4,1.6031874,None,,,,,,,,,0,33,33,18,313.4475672,,,,,,315.053804,315.0583443,315.5637607,315.5431844,,,,,,,,,,,,,,,,,,,,,,,,,313.4423487,313.4475672,313.4475672,313.4475672,315.0536891,4,1.6031874,None,,,,,773374,1,23,1,2025-06-09_12h43.16.796,מחקר פסיכולוגי,2024.2.4,119.9049394,2025-06-09 12h43.37.146746 +0300,
,34,34,0,,,,,,,,images2/image33.png,new | afrikan | flipped,"האדם בתמונה הוא:
1. זמר 
2. שחקן
3.פוליטיקאי
4. לא מכיר/ה
",2,2,2.491794,None,,,,,,,,,0,34,34,20,315.5637607,,,,,,318.0610143,318.066572,318.569668,318.5514752,,,,,,,,,,,,,,,,,,,,,,,,,315.5581581,315.5637607,315.5637607,315.5637607,318.0609091,2,2.491794,None,,,,,773374,1,23,1,2025-06-09_12h43.16.796,מחקר פסיכולוגי,2024.2.4,119.9049394,2025-06-09 12h43.37.146746 +0300,
,35,35,0,,,,,,,,images2/image35.png,new | afrikan | flipped,"האדם בתמונה הוא:
1. זמר 
2. שחקן
3. פוליטיקאי
4. לא מכיר/ה
",3,3,1.8589451,None,,,,,,,,,0,35,35,22,318.569668,,,,,,320.4358573,320.4412531,320.9329554,320.9253317,,,,,,,,,,,,,,,,,,,,,,,,,318.565911,318.569668,318.569668,318.569668,320.4357256,3,1.8589451,None,,,,,773374,1,23,1,2025-06-09_12h43.16.796,מחקר פסיכולוגי,2024.2.4,119.9049394,2025-06-09 12h43.37.146746 +0300,
,,,,,,,,,,,,,,,,,,,,,,,,,,,,,,,,,,,,,,,,,,,,,,,,,,,,,,,,,,,,,,,,,,,,,,,,320.92547,320.9329554,323.9246256,323.9175971,773374,1,23,1,2025-06-09_12h43.16.796,מחקר פסיכולוגי,2024.2.4,119.9049394,2025-06-09 12h43.37.146746 +0300,
,,,,,,,,,,old | caucasian | flipped,old | caucasian | normal,new | caucasian | flipped,new | caucasian | normal,old | afrikan | flipped,old | afrikan | normal,new | afrikan | flipped,new | afrikan | normal,,sum,,,,,,,,,,,,,,,,,,,,,,,,,,,,,,,,,,,,,,,,,,,,,,,,,,,,,,,,,,,,,,,,,,
,,,,,,,,,,4,4,4,4,4,3,4,4,,31,,,,,,,,,,,,,,,,,,,,,,,,,,,,,,,,,,,,,,,,,,,,,,,,,,,,,,,,,,,,,,,,,,
,,,,,,,,,,,,,,,,,,,,,,,,,,,,,,,,,,,,,,,,,,,,,,,,,,,,,,,,,,,,,,,,,,,,,,,,,,,,,,,,,,,,,
,,,,,,,,,sum correct,31,,,,,,,,,,,,,,,,,,,,,,,,,,,,,,,,,,,,,,,,,,,,,,,,,,,,,,,,,,,,,,,,,,,,,,,,,,,
,,,,,,,,,sum not 4,31,,,,,,,,,,,,,,,,,,,,,,,,,,,,,,,,,,,,,,,,,,,,,,,,,,,,,,,,,,,,,,,,,,,,,,,,,,,
