faceTesting,oldnew,race,isFamous,,faceAsking,options,correctOption,learningLoop.thisRepN,learningLoop.thisTrialN,learningLoop.thisN,learningLoop.thisIndex,testingLoop.thisRepN,testingLoop.thisTrialN,testingLoop.thisN,testingLoop.thisIndex,familiarnessLoop.thisRepN,familiarnessLoop.thisTrialN,familiarnessLoop.thisN,familiarnessLoop.thisIndex,thisRow.t,notes,haskama_2.started,haskama.started,key_resp.started,haskama_2.stopped,Blank500.started,image.started,Blank500.stopped,insLearning.started,insLearning_img.started,key_resp_2.started,insLearning.stopped,learningPic.started,facestudypic.started,learningPic.stopped,insTest.started,insTest_img.started,key_resp_4.started,insTest.stopped,image.stopped,testingPic.started,orientation,facetestpic.started,testkeys.started,testingPic.stopped,testkeys.keys,testkeys.rt,testkeys.duration,insFamiliarness.started,insFamiliarness_img.started,key_resp_5.started,insFamiliarness.stopped,familiarnessPic.started,familiarnessPic_img.started,familiarnessKeys.started,text.started,familiarnessPic.stopped,familiarnessKeys.keys,familiarnessKeys.rt,familiarnessKeys.duration,thankYou.started,text_2.started,thankYou.stopped,participant,session,age,"female=""1"""," male=""2""",date,expName,psychopyVersion,frameRate,expStart
,,,,,,,,,,,,,,,,,,,,,,0.0059937,0.0386029,0.0386029,5.2407399,,,,,,,,,,,,,,,,,,,,,,,,,,,,,,,,,,,,,,,875289,2,27,2,2025-10-08_15h27.28.645,מחקר פסיכולוגי,2024.1.4,None,2025-10-08 15h28.31.832561 +0300,
,,,,,,,,,,,,,,,,,,,,,,,,,,5.2408216,5.2494424,5.7450255,,,,,,,,,,,,,,,,,,,,,,,,,,,,,,,,,,,,875289,2,27,2,2025-10-08_15h27.28.645,מחקר פסיכולוגי,2024.1.4,None,2025-10-08 15h28.31.832561 +0300,
,,,,,,,,,,,,,,,,,,,,,,,,,,,,,5.7450587,5.7652285,5.7652285,16.5161536,,,,,,,,,,,,,,,,,,,,,,,,,,,,,,,,875289,2,27,2,2025-10-08_15h27.28.645,מחקר פסיכולוגי,2024.1.4,None,2025-10-08 15h28.31.832561 +0300,
,,,,,,,,,,,,,,,,,,,,94.0519971,,,,,,96.0281806,96.043067,96.5265576,,,,,94.0266468,94.0519971,96.028158,96.5267544,96.5496417,96.5496417,98.4002432,,,,,,,,,,,,,,,,,,,,,,,,,875289,2,27,2,2025-10-08_15h27.28.645,מחקר פסיכולוגי,2024.1.4,None,2025-10-08 15h28.31.832561 +0300,
,,,,,,,,,,,,,,,,,,,,,,,,,,98.4002874,98.409707,98.8936601,,,,,,,,,,,,98.9263013,,,,,,,,,,,,,,,,,,,,,,,,875289,2,27,2,2025-10-08_15h27.28.645,מחקר פסיכולוגי,2024.1.4,None,2025-10-08 15h28.31.832561 +0300,
images2/image48.png,old,caucasian,famous,,,,,,,,,0,0,0,47,,,,,98.9263013,,,,,,104.8133276,104.817114,105.3104302,,,,,,,,,,,,105.3543557,98.9142334,normal,98.9263013,98.9263013,104.795348,right,5.8556185,None,,,,,,,,,,,,,,,,875289,2,27,2,2025-10-08_15h27.28.645,מחקר פסיכולוגי,2024.1.4,None,2025-10-08 15h28.31.832561 +0300,
images2/image10.png,new,caucasian,famous,,,,,,,,,0,1,1,9,,,,,105.3543557,,,,,,107.5625598,107.5764078,108.0604644,,,,,,,,,,,,108.0783815,105.3275548,normal,105.3543557,105.3543557,107.5622446,left,2.2028468,None,,,,,,,,,,,,,,,,875289,2,27,2,2025-10-08_15h27.28.645,מחקר פסיכולוגי,2024.1.4,None,2025-10-08 15h28.31.832561 +0300,
images2/image58.png,old,caucasian,unknown,,,,,,,,,0,2,2,57,,,,,108.0783815,,,,,,109.3128359,109.3261561,109.8101099,,,,,,,,,,,,109.8770658,108.0608435,normal,108.0783815,108.0783815,109.3125136,right,1.2241231,None,,,,,,,,,,,,,,,,875289,2,27,2,2025-10-08_15h27.28.645,מחקר פסיכולוגי,2024.1.4,None,2025-10-08 15h28.31.832561 +0300,
images2/image8.png,new,afrikan,famous,,,,,,,,,0,3,3,7,,,,,109.8770658,,,,,,111.1459372,111.1594565,111.6438918,,,,,,,,,,,,111.7236253,109.8103616,normal,109.8770658,109.8770658,111.1455657,right,1.257095,None,,,,,,,,,,,,,,,,875289,2,27,2,2025-10-08_15h27.28.645,מחקר פסיכולוגי,2024.1.4,None,2025-10-08 15h28.31.832561 +0300,
images2/image28.png,new,caucasian,unknown,,,,,,,,,0,4,4,27,,,,,111.7236253,,,,,,112.5621306,112.5762404,113.0603373,,,,,,,,,,,,113.1173569,111.6442499,normal,111.7236253,111.7236253,112.561819,left,0.8270365,None,,,,,,,,,,,,,,,,875289,2,27,2,2025-10-08_15h27.28.645,מחקר פסיכולוגי,2024.1.4,None,2025-10-08 15h28.31.832561 +0300,
images2/image3.png,new,afrikan,famous,,,,,,,,,0,5,5,2,,,,,113.1173569,,,,,,114.6123566,114.6261365,115.110237,,,,,,,,,,,,115.1283531,113.0609101,flipped,113.1173569,113.1173569,114.6120292,left,1.4852984,None,,,,,,,,,,,,,,,,875289,2,27,2,2025-10-08_15h27.28.645,מחקר פסיכולוגי,2024.1.4,None,2025-10-08 15h28.31.832561 +0300,
images2/image42.png,old,caucasian,famous,,,,,,,,,0,6,6,41,,,,,115.1283531,,,,,,118.3962619,118.409541,118.8935285,,,,,,,,,,,,118.9370961,115.110623,flipped,115.1283531,115.1283531,118.3958778,right,3.2583102,None,,,,,,,,,,,,,,,,875289,2,27,2,2025-10-08_15h27.28.645,מחקר פסיכולוגי,2024.1.4,None,2025-10-08 15h28.31.832561 +0300,
images2/image5.png,new,afrikan,famous,,,,,,,,,0,7,7,4,,,,,118.9370961,,,,,,122.0458941,122.0592413,122.5431815,,,,,,,,,,,,122.5616732,118.8939224,normal,118.9370961,118.9370961,122.0455783,left,3.0993718,None,,,,,,,,,,,,,,,,875289,2,27,2,2025-10-08_15h27.28.645,מחקר פסיכולוגי,2024.1.4,None,2025-10-08 15h28.31.832561 +0300,
images2/image52.png,old,afrikan,unknown,,,,,,,,,0,8,8,51,,,,,122.5616732,,,,,,124.5621803,124.5759103,125.0599981,,,,,,,,,,,,125.0831651,122.5434546,flipped,122.5616732,122.5616732,124.5618217,left,1.9920507,None,,,,,,,,,,,,,,,,875289,2,27,2,2025-10-08_15h27.28.645,מחקר פסיכולוגי,2024.1.4,None,2025-10-08 15h28.31.832561 +0300,
images2/image12.png,new,caucasian,famous,,,,,,,,,0,9,9,11,,,,,125.0831651,,,,,,128.0626795,128.0757443,128.5600572,,,,,,,,,,,,128.5977768,125.0603594,flipped,125.0831651,125.0831651,128.0622874,left,2.9668027,None,,,,,,,,,,,,,,,,875289,2,27,2,2025-10-08_15h27.28.645,מחקר פסיכולוגי,2024.1.4,None,2025-10-08 15h28.31.832561 +0300,
images2/image4.png,new,afrikan,famous,,,,,,,,,0,10,10,3,,,,,128.5977768,,,,,,129.7794604,129.7926891,130.2769116,,,,,,,,,,,,130.3036847,128.5604137,flipped,128.5977768,128.5977768,129.7790921,left,1.1715002,None,,,,,,,,,,,,,,,,875289,2,27,2,2025-10-08_15h27.28.645,מחקר פסיכולוגי,2024.1.4,None,2025-10-08 15h28.31.832561 +0300,
images2/image27.png,new,caucasian,unknown,,,,,,,,,0,11,11,26,,,,,130.3036847,,,,,,131.6951504,131.7092373,132.1929064,,,,,,,,,,,,132.2115127,130.2773628,normal,130.3036847,130.3036847,131.6948528,left,1.3781495,None,,,,,,,,,,,,,,,,875289,2,27,2,2025-10-08_15h27.28.645,מחקר פסיכולוגי,2024.1.4,None,2025-10-08 15h28.31.832561 +0300,
images2/image45.png,old,caucasian,famous,,,,,,,,,0,12,12,44,,,,,132.2115127,,,,,,135.4287622,135.4424859,135.9264362,,,,,,,,,,,,135.9793115,132.1931959,flipped,132.2115127,132.2115127,135.4284157,right,3.2057659,None,,,,,,,,,,,,,,,,875289,2,27,2,2025-10-08_15h27.28.645,מחקר פסיכולוגי,2024.1.4,None,2025-10-08 15h28.31.832561 +0300,
images2/image7.png,new,afrikan,famous,,,,,,,,,0,13,13,6,,,,,135.9793115,,,,,,137.4952814,137.5091866,137.9936144,,,,,,,,,,,,138.0117121,135.926828,normal,135.9793115,135.9793115,137.4949525,left,1.5132718,None,,,,,,,,,,,,,,,,875289,2,27,2,2025-10-08_15h27.28.645,מחקר פסיכולוגי,2024.1.4,None,2025-10-08 15h28.31.832561 +0300,
images2/image57.png,old,caucasian,unknown,,,,,,,,,0,14,14,56,,,,,138.0117121,,,,,,139.9791046,139.9922284,140.4768156,,,,,,,,,,,,140.5046213,137.9940731,flipped,138.0117121,138.0117121,139.9788108,right,1.9633839,None,,,,,,,,,,,,,,,,875289,2,27,2,2025-10-08_15h27.28.645,מחקר פסיכולוגי,2024.1.4,None,2025-10-08 15h28.31.832561 +0300,
images2/image15.png,new,caucasian,famous,,,,,,,,,0,15,15,14,,,,,140.5046213,,,,,,142.3126479,142.325497,142.8099723,,,,,,,,,,,,142.8492985,140.4772257,normal,140.5046213,140.5046213,142.3122808,left,1.7941573,None,,,,,,,,,,,,,,,,875289,2,27,2,2025-10-08_15h27.28.645,מחקר פסיכולוגי,2024.1.4,None,2025-10-08 15h28.31.832561 +0300,
images2/image29.png,new,caucasian,unknown,,,,,,,,,0,16,16,28,,,,,142.8492985,,,,,,144.5456832,144.5589686,145.0430133,,,,,,,,,,,,145.0830718,142.8103679,flipped,142.8492985,142.8492985,144.5452469,left,1.6837587,None,,,,,,,,,,,,,,,,875289,2,27,2,2025-10-08_15h27.28.645,מחקר פסיכולוגי,2024.1.4,None,2025-10-08 15h28.31.832561 +0300,
images2/image1.png,new,afrikan,famous,,,,,,,,,0,17,17,0,,,,,145.0830718,,,,,,147.9459595,147.9589733,148.4430148,,,,,,,,,,,,148.4614714,145.0433149,normal,145.0830718,145.0830718,147.9453875,left,2.8458792,None,,,,,,,,,,,,,,,,875289,2,27,2,2025-10-08_15h27.28.645,מחקר פסיכולוגי,2024.1.4,None,2025-10-08 15h28.31.832561 +0300,
images2/image63.png,old,caucasian,unknown,,,,,,,,,0,18,18,62,,,,,148.4614714,,,,,,150.4451905,150.4588261,150.9428148,,,,,,,,,,,,150.9752938,148.4433725,flipped,148.4614714,148.4614714,150.4448253,left,1.9731963,None,,,,,,,,,,,,,,,,875289,2,27,2,2025-10-08_15h27.28.645,מחקר פסיכולוגי,2024.1.4,None,2025-10-08 15h28.31.832561 +0300,
images2/image14.png,new,caucasian,famous,,,,,,,,,0,19,19,13,,,,,150.9752938,,,,,,153.1451349,153.1587164,153.6435142,,,,,,,,,,,,153.7079442,150.9431863,flipped,150.9752938,150.9752938,153.1447339,left,2.1631126,None,,,,,,,,,,,,,,,,875289,2,27,2,2025-10-08_15h27.28.645,מחקר פסיכולוגי,2024.1.4,None,2025-10-08 15h28.31.832561 +0300,
images2/image59.png,old,caucasian,unknown,,,,,,,,,0,20,20,58,,,,,153.7079442,,,,,,156.2459906,156.2587061,156.742793,,,,,,,,,,,,156.8578311,153.6439768,normal,153.7079442,153.7079442,156.2456721,left,2.5338116,None,,,,,,,,,,,,,,,,875289,2,27,2,2025-10-08_15h27.28.645,מחקר פסיכולוגי,2024.1.4,None,2025-10-08 15h28.31.832561 +0300,
images2/image56.png,old,afrikan,unknown,,,,,,,,,0,21,21,55,,,,,156.8578311,,,,,,158.7285381,158.7420503,159.2276851,,,,,,,,,,,,159.2526114,156.7431457,flipped,156.8578311,156.8578311,158.7282508,left,1.8687645,None,,,,,,,,,,,,,,,,875289,2,27,2,2025-10-08_15h27.28.645,מחקר פסיכולוגי,2024.1.4,None,2025-10-08 15h28.31.832561 +0300,
images2/image49.png,old,afrikan,unknown,,,,,,,,,0,22,22,48,,,,,159.2526114,,,,,,161.9303648,161.9418431,162.426334,,,,,,,,,,,,162.4710634,159.2279651,flipped,159.2526114,159.2526114,161.9300811,right,2.6746571,None,,,,,,,,,,,,,,,,875289,2,27,2,2025-10-08_15h27.28.645,מחקר פסיכולוגי,2024.1.4,None,2025-10-08 15h28.31.832561 +0300,
images2/image17.png,new,afrikan,unknown,,,,,,,,,0,23,23,16,,,,,162.4710634,,,,,,164.3789947,164.3920114,164.8762611,,,,,,,,,,,,164.9187999,162.4267727,normal,162.4710634,162.4710634,164.3779154,right,1.8962953,None,,,,,,,,,,,,,,,,875289,2,27,2,2025-10-08_15h27.28.645,מחקר פסיכולוגי,2024.1.4,None,2025-10-08 15h28.31.832561 +0300,
images2/image26.png,new,caucasian,unknown,,,,,,,,,0,24,24,25,,,,,164.9187999,,,,,,166.4290056,166.4419991,166.9262152,,,,,,,,,,,,166.9712434,164.8765942,flipped,164.9187999,164.9187999,166.4286777,left,1.5063006,None,,,,,,,,,,,,,,,,875289,2,27,2,2025-10-08_15h27.28.645,מחקר פסיכולוגי,2024.1.4,None,2025-10-08 15h28.31.832561 +0300,
images2/image30.png,new,caucasian,unknown,,,,,,,,,0,25,25,29,,,,,166.9712434,,,,,,168.2784448,168.2916971,168.7765944,,,,,,,,,,,,168.7939085,166.9266031,flipped,166.9712434,166.9712434,168.2780163,left,1.3041806,None,,,,,,,,,,,,,,,,875289,2,27,2,2025-10-08_15h27.28.645,מחקר פסיכולוגי,2024.1.4,None,2025-10-08 15h28.31.832561 +0300,
images2/image33.png,old,afrikan,famous,,,,,,,,,0,26,26,32,,,,,168.7939085,,,,,,170.2616559,170.275388,170.7594145,,,,,,,,,,,,170.777441,168.7770105,flipped,168.7939085,168.7939085,170.2612116,right,1.4554294,None,,,,,,,,,,,,,,,,875289,2,27,2,2025-10-08_15h27.28.645,מחקר פסיכולוגי,2024.1.4,None,2025-10-08 15h28.31.832561 +0300,
images2/image35.png,old,afrikan,famous,,,,,,,,,0,27,27,34,,,,,170.777441,,,,,,171.6951929,171.7084252,172.1923633,,,,,,,,,,,,172.2313717,170.7598372,normal,170.777441,170.777441,171.6947394,right,0.9101593,None,,,,,,,,,,,,,,,,875289,2,27,2,2025-10-08_15h27.28.645,מחקר פסיכולוגי,2024.1.4,None,2025-10-08 15h28.31.832561 +0300,
images2/image31.png,new,caucasian,unknown,,,,,,,,,0,28,28,30,,,,,172.2313717,,,,,,174.2290959,174.2416334,174.7256331,,,,,,,,,,,,174.7439236,172.1926326,normal,172.2313717,172.2313717,174.228631,left,1.9811475,None,,,,,,,,,,,,,,,,875289,2,27,2,2025-10-08_15h27.28.645,מחקר פסיכולוגי,2024.1.4,None,2025-10-08 15h28.31.832561 +0300,
images2/image54.png,old,afrikan,unknown,,,,,,,,,0,29,29,53,,,,,174.7439236,,,,,,176.5784918,176.5919771,177.0760086,,,,,,,,,,,,177.1402429,174.7259378,normal,174.7439236,174.7439236,176.5780369,right,1.8176774,None,,,,,,,,,,,,,,,,875289,2,27,2,2025-10-08_15h27.28.645,מחקר פסיכולוגי,2024.1.4,None,2025-10-08 15h28.31.832561 +0300,
images2/image32.png,new,caucasian,unknown,,,,,,,,,0,30,30,31,,,,,177.1402429,,,,,,179.5459771,179.5585683,180.0424236,,,,,,,,,,,,180.0715959,177.0765842,flipped,177.1402429,177.1402429,179.5455328,left,2.3977936,None,,,,,,,,,,,,,,,,875289,2,27,2,2025-10-08_15h27.28.645,מחקר פסיכולוגי,2024.1.4,None,2025-10-08 15h28.31.832561 +0300,
images2/image6.png,new,afrikan,famous,,,,,,,,,0,31,31,5,,,,,180.0715959,,,,,,181.8447417,181.8584523,182.3428977,,,,,,,,,,,,182.3603012,180.0428066,flipped,180.0715959,180.0715959,181.8444067,left,1.7663422,None,,,,,,,,,,,,,,,,875289,2,27,2,2025-10-08_15h27.28.645,מחקר פסיכולוגי,2024.1.4,None,2025-10-08 15h28.31.832561 +0300,
images2/image38.png,old,afrikan,famous,,,,,,,,,0,32,32,37,,,,,182.3603012,,,,,,183.8783924,183.8916455,184.3775341,,,,,,,,,,,,184.4054636,182.3433842,flipped,182.3603012,182.3603012,183.8780363,left,1.5044017,None,,,,,,,,,,,,,,,,875289,2,27,2,2025-10-08_15h27.28.645,מחקר פסיכולוגי,2024.1.4,None,2025-10-08 15h28.31.832561 +0300,
images2/image50.png,old,afrikan,unknown,,,,,,,,,0,33,33,49,,,,,184.4054636,,,,,,186.1615398,186.1748877,186.6591853,,,,,,,,,,,,186.6859833,184.3780201,normal,184.4054636,184.4054636,186.1610431,left,1.7439097,None,,,,,,,,,,,,,,,,875289,2,27,2,2025-10-08_15h27.28.645,מחקר פסיכולוגי,2024.1.4,None,2025-10-08 15h28.31.832561 +0300,
images2/image37.png,old,afrikan,famous,,,,,,,,,0,34,34,36,,,,,186.6859833,,,,,,187.6782174,187.6915475,188.1760537,,,,,,,,,,,,188.2074618,186.6595983,normal,186.6859833,186.6859833,187.6777625,right,0.9806054,None,,,,,,,,,,,,,,,,875289,2,27,2,2025-10-08_15h27.28.645,מחקר פסיכולוגי,2024.1.4,None,2025-10-08 15h28.31.832561 +0300,
images2/image19.png,new,afrikan,unknown,,,,,,,,,0,35,35,18,,,,,188.2074618,,,,,,189.2277301,189.2415541,189.725756,,,,,,,,,,,,189.7436555,188.176951,normal,188.2074618,188.2074618,189.2274124,left,1.0160288,None,,,,,,,,,,,,,,,,875289,2,27,2,2025-10-08_15h27.28.645,מחקר פסיכולוגי,2024.1.4,None,2025-10-08 15h28.31.832561 +0300,
images2/image64.png,old,caucasian,unknown,,,,,,,,,0,36,36,63,,,,,189.7436555,,,,,,191.0944229,191.1079611,191.5923169,,,,,,,,,,,,191.6259871,189.7260593,flipped,189.7436555,189.7436555,191.0941151,right,1.3457254,None,,,,,,,,,,,,,,,,875289,2,27,2,2025-10-08_15h27.28.645,מחקר פסיכולוגי,2024.1.4,None,2025-10-08 15h28.31.832561 +0300,
images2/image21.png,new,afrikan,unknown,,,,,,,,,0,37,37,20,,,,,191.6259871,,,,,,193.7617034,193.77478,194.2591225,,,,,,,,,,,,194.2770226,191.5927633,normal,191.6259871,191.6259871,193.7613678,left,2.1198629,None,,,,,,,,,,,,,,,,875289,2,27,2,2025-10-08_15h27.28.645,מחקר פסיכולוגי,2024.1.4,None,2025-10-08 15h28.31.832561 +0300,
images2/image44.png,old,caucasian,famous,,,,,,,,,0,38,38,43,,,,,194.2770226,,,,,,195.2611679,195.2747866,195.7584377,,,,,,,,,,,,195.7765558,194.2594757,normal,194.2770226,194.2770226,195.2608073,right,0.9764654,None,,,,,,,,,,,,,,,,875289,2,27,2,2025-10-08_15h27.28.645,מחקר פסיכולוגי,2024.1.4,None,2025-10-08 15h28.31.832561 +0300,
images2/image34.png,old,afrikan,famous,,,,,,,,,0,39,39,33,,,,,195.7765558,,,,,,196.995132,197.0080074,197.4925874,,,,,,,,,,,,197.5101393,195.7587285,normal,195.7765558,195.7765558,196.9945561,right,1.2090754,None,,,,,,,,,,,,,,,,875289,2,27,2,2025-10-08_15h27.28.645,מחקר פסיכולוגי,2024.1.4,None,2025-10-08 15h28.31.832561 +0300,
images2/image47.png,old,caucasian,famous,,,,,,,,,0,40,40,46,,,,,197.5101393,,,,,,198.4775949,198.4912362,198.9759094,,,,,,,,,,,,199.0303368,197.4930725,flipped,197.5101393,197.5101393,198.4772782,right,0.9639062,None,,,,,,,,,,,,,,,,875289,2,27,2,2025-10-08_15h27.28.645,מחקר פסיכולוגי,2024.1.4,None,2025-10-08 15h28.31.832561 +0300,
images2/image62.png,old,caucasian,unknown,,,,,,,,,0,41,41,61,,,,,199.0303368,,,,,,201.1108372,201.124534,201.609077,,,,,,,,,,,,201.6924046,198.9763092,flipped,199.0303368,199.0303368,201.1105384,right,2.0726954,None,,,,,,,,,,,,,,,,875289,2,27,2,2025-10-08_15h27.28.645,מחקר פסיכולוגי,2024.1.4,None,2025-10-08 15h28.31.832561 +0300,
images2/image9.png,new,caucasian,famous,,,,,,,,,0,42,42,8,,,,,201.6924046,,,,,,204.8280645,204.8412694,205.3255111,,,,,,,,,,,,205.3638134,201.6095435,normal,201.6924046,201.6924046,204.8277434,left,3.1257228,None,,,,,,,,,,,,,,,,875289,2,27,2,2025-10-08_15h27.28.645,מחקר פסיכולוגי,2024.1.4,None,2025-10-08 15h28.31.832561 +0300,
images2/image24.png,new,afrikan,unknown,,,,,,,,,0,43,43,23,,,,,205.3638134,,,,,,207.4116715,207.424862,207.9089123,,,,,,,,,,,,207.9610618,205.3258814,flipped,205.3638134,205.3638134,207.411163,left,2.0396049,None,,,,,,,,,,,,,,,,875289,2,27,2,2025-10-08_15h27.28.645,מחקר פסיכולוגי,2024.1.4,None,2025-10-08 15h28.31.832561 +0300,
images2/image18.png,new,afrikan,unknown,,,,,,,,,0,44,44,17,,,,,207.9610618,,,,,,208.8445204,208.857738,209.3424402,,,,,,,,,,,,209.3985288,207.90932,flipped,207.9610618,207.9610618,208.8441863,left,0.8694964,None,,,,,,,,,,,,,,,,875289,2,27,2,2025-10-08_15h27.28.645,מחקר פסיכולוגי,2024.1.4,None,2025-10-08 15h28.31.832561 +0300,
images2/image55.png,old,afrikan,unknown,,,,,,,,,0,45,45,54,,,,,209.3985288,,,,,,210.6107856,210.6247345,211.1087669,,,,,,,,,,,,211.1506765,209.3428465,normal,209.3985288,209.3985288,210.610476,left,1.2032953,None,,,,,,,,,,,,,,,,875289,2,27,2,2025-10-08_15h27.28.645,מחקר פסיכולוגי,2024.1.4,None,2025-10-08 15h28.31.832561 +0300,
images2/image20.png,new,afrikan,unknown,,,,,,,,,0,46,46,19,,,,,211.1506765,,,,,,212.4775344,212.4912167,212.9756592,,,,,,,,,,,,213.0032498,211.1091892,flipped,211.1506765,211.1506765,212.4771782,left,1.3163525,None,,,,,,,,,,,,,,,,875289,2,27,2,2025-10-08_15h27.28.645,מחקר פסיכולוגי,2024.1.4,None,2025-10-08 15h28.31.832561 +0300,
images2/image40.png,old,afrikan,famous,,,,,,,,,0,47,47,39,,,,,213.0032498,,,,,,214.0107079,214.0244342,214.5085931,,,,,,,,,,,,214.5264825,212.9762178,normal,213.0032498,213.0032498,214.0103526,left,0.9966973,None,,,,,,,,,,,,,,,,875289,2,27,2,2025-10-08_15h27.28.645,מחקר פסיכולוגי,2024.1.4,None,2025-10-08 15h28.31.832561 +0300,
images2/image61.png,old,caucasian,unknown,,,,,,,,,0,48,48,60,,,,,214.5264825,,,,,,216.0103374,216.024364,216.5087619,,,,,,,,,,,,216.5267823,214.5089788,normal,214.5264825,214.5264825,216.0100498,left,1.4783301,None,,,,,,,,,,,,,,,,875289,2,27,2,2025-10-08_15h27.28.645,מחקר פסיכולוגי,2024.1.4,None,2025-10-08 15h28.31.832561 +0300,
images2/image41.png,old,caucasian,famous,,,,,,,,,0,49,49,40,,,,,216.5267823,,,,,,219.5942652,219.6077013,220.0921539,,,,,,,,,,,,220.1434318,216.5091108,normal,216.5267823,216.5267823,219.5937661,left,3.061427,None,,,,,,,,,,,,,,,,875289,2,27,2,2025-10-08_15h27.28.645,מחקר פסיכולוגי,2024.1.4,None,2025-10-08 15h28.31.832561 +0300,
images2/image16.png,new,caucasian,famous,,,,,,,,,0,50,50,15,,,,,220.1434318,,,,,,221.4104599,221.4242621,221.9082534,,,,,,,,,,,,221.9265683,220.0926015,flipped,220.1434318,220.1434318,221.4100726,left,1.2608709,None,,,,,,,,,,,,,,,,875289,2,27,2,2025-10-08_15h27.28.645,מחקר פסיכולוגי,2024.1.4,None,2025-10-08 15h28.31.832561 +0300,
images2/image36.png,old,afrikan,famous,,,,,,,,,0,51,51,35,,,,,221.9265683,,,,,,223.5777264,223.5910119,224.0754819,,,,,,,,,,,,224.1022929,221.9086478,flipped,221.9265683,221.9265683,223.5773824,left,1.6462518,None,,,,,,,,,,,,,,,,875289,2,27,2,2025-10-08_15h27.28.645,מחקר פסיכולוגי,2024.1.4,None,2025-10-08 15h28.31.832561 +0300,
images2/image39.png,old,afrikan,famous,,,,,,,,,0,52,52,38,,,,,224.1022929,,,,,,225.6103385,225.6243797,226.108263,,,,,,,,,,,,226.1549935,224.0759486,flipped,224.1022929,224.1022929,225.610022,right,1.4994345,None,,,,,,,,,,,,,,,,875289,2,27,2,2025-10-08_15h27.28.645,מחקר פסיכולוגי,2024.1.4,None,2025-10-08 15h28.31.832561 +0300,
images2/image22.png,new,afrikan,unknown,,,,,,,,,0,53,53,21,,,,,226.1549935,,,,,,227.7771686,227.7909768,228.2765246,,,,,,,,,,,,228.2933503,226.1086324,normal,226.1549935,226.1549935,227.7768066,left,1.6081876,None,,,,,,,,,,,,,,,,875289,2,27,2,2025-10-08_15h27.28.645,מחקר פסיכולוגי,2024.1.4,None,2025-10-08 15h28.31.832561 +0300,
images2/image43.png,old,caucasian,famous,,,,,,,,,0,54,54,42,,,,,228.2933503,,,,,,231.0946742,231.10738,231.591564,,,,,,,,,,,,231.672416,228.2773606,normal,228.2933503,228.2933503,231.0942693,left,2.797376,None,,,,,,,,,,,,,,,,875289,2,27,2,2025-10-08_15h27.28.645,מחקר פסיכולוגי,2024.1.4,None,2025-10-08 15h28.31.832561 +0300,
images2/image25.png,new,caucasian,unknown,,,,,,,,,0,55,55,24,,,,,231.672416,,,,,,234.5785919,234.5908404,235.0745749,,,,,,,,,,,,235.1348101,231.5919324,normal,231.672416,231.672416,234.5779347,left,2.8914196,None,,,,,,,,,,,,,,,,875289,2,27,2,2025-10-08_15h27.28.645,מחקר פסיכולוגי,2024.1.4,None,2025-10-08 15h28.31.832561 +0300,
images2/image51.png,old,afrikan,unknown,,,,,,,,,0,56,56,50,,,,,235.1348101,,,,,,238.3270498,238.3410111,238.8245107,,,,,,,,,,,,238.8761011,235.0748424,flipped,235.1348101,235.1348101,238.3267439,left,3.1821591,None,,,,,,,,,,,,,,,,875289,2,27,2,2025-10-08_15h27.28.645,מחקר פסיכולוגי,2024.1.4,None,2025-10-08 15h28.31.832561 +0300,
images2/image11.png,new,caucasian,famous,,,,,,,,,0,57,57,10,,,,,238.8761011,,,,,,240.8610998,240.8739615,241.3586557,,,,,,,,,,,,241.3759885,238.8247645,normal,238.8761011,238.8761011,240.8606953,left,1.9787943,None,,,,,,,,,,,,,,,,875289,2,27,2,2025-10-08_15h27.28.645,מחקר פסיכולוגי,2024.1.4,None,2025-10-08 15h28.31.832561 +0300,
images2/image53.png,old,afrikan,unknown,,,,,,,,,0,58,58,52,,,,,241.3759885,,,,,,242.7106247,242.7238494,243.2083027,,,,,,,,,,,,243.2502742,241.3591004,normal,241.3759885,241.3759885,242.7103109,left,1.3326447,None,,,,,,,,,,,,,,,,875289,2,27,2,2025-10-08_15h27.28.645,מחקר פסיכולוגי,2024.1.4,None,2025-10-08 15h28.31.832561 +0300,
images2/image23.png,new,afrikan,unknown,,,,,,,,,0,59,59,22,,,,,243.2502742,,,,,,245.4771657,245.490331,245.9761838,,,,,,,,,,,,246.0217329,243.2086457,flipped,243.2502742,243.2502742,245.4767662,left,2.2104013,None,,,,,,,,,,,,,,,,875289,2,27,2,2025-10-08_15h27.28.645,מחקר פסיכולוגי,2024.1.4,None,2025-10-08 15h28.31.832561 +0300,
images2/image13.png,new,caucasian,famous,,,,,,,,,0,60,60,12,,,,,246.0217329,,,,,,248.7768128,248.790724,249.2746835,,,,,,,,,,,,249.3310348,245.9765697,flipped,246.0217329,246.0217329,248.7764772,left,2.7423594,None,,,,,,,,,,,,,,,,875289,2,27,2,2025-10-08_15h27.28.645,מחקר פסיכולוגי,2024.1.4,None,2025-10-08 15h28.31.832561 +0300,
images2/image2.png,new,afrikan,famous,,,,,,,,,0,61,61,1,,,,,249.3310348,,,,,,250.5102675,250.523639,251.0078086,,,,,,,,,,,,251.0444516,249.275232,flipped,249.3310348,249.3310348,250.5099404,left,1.1650937,None,,,,,,,,,,,,,,,,875289,2,27,2,2025-10-08_15h27.28.645,מחקר פסיכולוגי,2024.1.4,None,2025-10-08 15h28.31.832561 +0300,
images2/image60.png,old,caucasian,unknown,,,,,,,,,0,62,62,59,,,,,251.0444516,,,,,,252.929861,252.940615,253.4256391,,,,,,,,,,,,253.4480198,251.0081501,normal,251.0444516,251.0444516,252.9288994,left,1.8748282,None,,,,,,,,,,,,,,,,875289,2,27,2,2025-10-08_15h27.28.645,מחקר פסיכולוגי,2024.1.4,None,2025-10-08 15h28.31.832561 +0300,
images2/image46.png,old,caucasian,famous,,,,,,,,,0,63,63,45,,,,,253.4480198,,,,,,257.5459264,257.5568066,258.0406314,,,,,,,,,,,,258.0613058,253.4266644,flipped,253.4480198,253.4480198,257.5454769,right,4.093914,None,,,,,,,,,,,,,,,,875289,2,27,2,2025-10-08_15h27.28.645,מחקר פסיכולוגי,2024.1.4,None,2025-10-08 15h28.31.832561 +0300,
,,,,,,,,,,,,,,,,,,,,,,,,,,,,,,,,,,,,,,,,,,,,,,,,,258.0406908,258.0613058,258.0613058,260.8452692,,,,,,,,,,,,875289,2,27,2,2025-10-08_15h27.28.645,מחקר פסיכולוגי,2024.1.4,None,2025-10-08 15h28.31.832561 +0300,
,,,,,,,,,,,,,,,,,,,,,,,,,,260.845301,260.8568425,261.3412417,,,,,,,,,,,,261.4479233,,,,,,,,,,,,,,,,,,,,,,,,875289,2,27,2,2025-10-08_15h27.28.645,מחקר פסיכולוגי,2024.1.4,None,2025-10-08 15h28.31.832561 +0300,
,,,,new | caucasian | normal,images2/image9.png,"האדם בתמונה הוא:
1. זמר 
2. שחקן
3. ספורטאי
4. לא מכיר/ה
",2,,,,,,,,,0,0,0,8,261.4479233,,,,,,265.4519991,265.4569145,265.9407654,,,,,,,,,,,,265.9612093,,,,,,,,,,,,,261.364754,261.4479233,261.4479233,261.4479233,265.4514588,2,4.0000718,None,,,,875289,2,27,2,2025-10-08_15h27.28.645,מחקר פסיכולוגי,2024.1.4,None,2025-10-08 15h28.31.832561 +0300,
,,,,old | caucasian | normal,images2/image48.png,"האדם בתמונה הוא:
1. זמר 
2. שחקן
3. ספורטאי
4. לא מכיר/ה
",2,,,,,,,,,0,1,1,35,265.9612093,,,,,,267.2928275,267.3068222,267.7906907,,,,,,,,,,,,267.8243214,,,,,,,,,,,,,265.9411392,265.9612093,265.9612093,265.9612093,267.2925421,2,1.3282775,None,,,,875289,2,27,2,2025-10-08_15h27.28.645,מחקר פסיכולוגי,2024.1.4,None,2025-10-08 15h28.31.832561 +0300,
,,,,old | caucasian | flipped,images2/image42.png,"האדם בתמונה הוא:
1. זמר 
2. שחקן
3. ספורטאי
4. לא מכיר/ה
",2,,,,,,,,,0,2,2,29,267.8243214,,,,,,269.1595109,269.1735118,269.6584224,,,,,,,,,,,,269.6966434,,,,,,,,,,,,,267.7909443,267.8243214,267.8243214,267.8243214,269.1592221,2,1.3289456,None,,,,875289,2,27,2,2025-10-08_15h27.28.645,מחקר פסיכולוגי,2024.1.4,None,2025-10-08 15h28.31.832561 +0300,
,,,,new | afrikan | normal,images2/image8.png,"האדם בתמונה הוא:
1. זמר 
2. שחקן
3. ספורטאי
4. לא מכיר/ה
",2,,,,,,,,,0,3,3,7,269.6966434,,,,,,271.1151763,271.123349,271.6079735,,,,,,,,,,,,271.6503998,,,,,,,,,,,,,269.6589576,269.6966434,269.6966434,269.6966434,271.1148824,2,1.4169192,None,,,,875289,2,27,2,2025-10-08_15h27.28.645,מחקר פסיכולוגי,2024.1.4,None,2025-10-08 15h28.31.832561 +0300,
,,,,new | afrikan | normal,images2/image7.png,"האדם בתמונה הוא:
1. זמר 
2. שחקן
3. ספורטאי
4. לא מכיר/ה
",1,,,,,,,,,0,4,4,6,271.6503998,,,,,,272.9326094,272.9398972,273.4243289,,,,,,,,,,,,273.4659985,,,,,,,,,,,,,271.6084321,271.6503998,271.6503998,271.6503998,272.9322884,1,1.2623668,None,,,,875289,2,27,2,2025-10-08_15h27.28.645,מחקר פסיכולוגי,2024.1.4,None,2025-10-08 15h28.31.832561 +0300,
,,,,old | caucasian | normal,images2/image43.png,"האדם בתמונה הוא:
1. זמר 
2. שחקן
3. ספורטאי
4. לא מכיר/ה
",1,,,,,,,,,0,5,5,30,273.4659985,,,,,,274.9262376,274.9399471,275.4242979,,,,,,,,,,,,275.4891627,,,,,,,,,,,,,273.424684,273.4659985,273.4659985,273.4659985,274.925892,1,1.4459612,None,,,,875289,2,27,2,2025-10-08_15h27.28.645,מחקר פסיכולוגי,2024.1.4,None,2025-10-08 15h28.31.832561 +0300,
,,,,new | caucasian | normal,images2/image25.png,"האדם בתמונה הוא:
1. זמר 
2. שחקן
3. ספורטאי
4. לא מכיר/ה
",4,,,,,,,,,0,6,6,18,275.4891627,,,,,,278.6158907,278.6231743,279.107874,,,,,,,,,,,,279.173734,,,,,,,,,,,,,275.424688,275.4891627,275.4891627,275.4891627,278.615599,4,3.1092211,None,,,,875289,2,27,2,2025-10-08_15h27.28.645,מחקר פסיכולוגי,2024.1.4,None,2025-10-08 15h28.31.832561 +0300,
,,,,new | afrikan | normal,images2/image1.png,"האדם בתמונה הוא:
1. זמר
2. שחקן
3. ספורטאי
4. לא מכיר/ה
",1,,,,,,,,,0,7,7,0,279.173734,,,,,,282.4775958,282.4898793,282.9745965,,,,,,,,,,,,283.0081729,,,,,,,,,,,,,279.1082315,279.173734,279.173734,279.173734,282.4772403,1,3.2950116,None,,,,875289,2,27,2,2025-10-08_15h27.28.645,מחקר פסיכולוגי,2024.1.4,None,2025-10-08 15h28.31.832561 +0300,
,,,,new | afrikan | flipped,images2/image20.png,"האדם בתמונה הוא:
1. זמר 
2. שחקן
3. ספורטאי
4. לא מכיר/ה
",4,,,,,,,,,0,8,8,17,283.0081729,,,,,,284.9598449,284.9636342,285.4575199,,,,,,,,,,,,285.4894442,,,,,,,,,,,,,282.9748584,283.0081729,283.0081729,283.0081729,284.9594238,4,1.9310747,None,,,,875289,2,27,2,2025-10-08_15h27.28.645,מחקר פסיכולוגי,2024.1.4,None,2025-10-08 15h28.31.832561 +0300,
,,,,new | afrikan | flipped,images2/image6.png,"האדם בתמונה הוא:
1. זמר 
2. שחקן
3. ספורטאי
4. לא מכיר/ה
",2,,,,,,,,,0,9,9,5,285.4894442,,,,,,288.5089728,288.5231172,289.0075411,,,,,,,,,,,,289.0281803,,,,,,,,,,,,,285.4579094,285.4894442,285.4894442,285.4894442,288.5086874,4,3.0116507,None,,,,875289,2,27,2,2025-10-08_15h27.28.645,מחקר פסיכולוגי,2024.1.4,None,2025-10-08 15h28.31.832561 +0300,
,,,,old | caucasian | normal,images2/image41.png,"האדם בתמונה הוא:
1. זמר 
2. שחקן
3. ספורטאי
4. לא מכיר/ה
",2,,,,,,,,,0,10,10,28,289.0281803,,,,,,293.8096367,293.823106,294.3072523,,,,,,,,,,,,294.347298,,,,,,,,,,,,,289.0079837,289.0281803,289.0281803,289.0281803,293.8092542,2,4.7776776,None,,,,875289,2,27,2,2025-10-08_15h27.28.645,מחקר פסיכולוגי,2024.1.4,None,2025-10-08 15h28.31.832561 +0300,
,,,,old | caucasian | flipped,images2/image47.png,"האדם בתמונה הוא:
1. זמר 
2. שחקן
3. ספורטאי
4. לא מכיר/ה
",1,,,,,,,,,0,11,11,34,294.347298,,,,,,296.3927814,296.4063508,296.8900206,,,,,,,,,,,,296.9133248,,,,,,,,,,,,,294.3076117,294.347298,294.347298,294.347298,296.3924439,1,2.0380591,None,,,,875289,2,27,2,2025-10-08_15h27.28.645,מחקר פסיכולוגי,2024.1.4,None,2025-10-08 15h28.31.832561 +0300,
,,,,old | afrikan | flipped,images2/image38.png,"האדם בתמונה הוא:
1. זמר 
2. שחקן
3. עתונאי
4. לא מכיר/ה
",3,,,,,,,,,0,12,12,25,296.9133248,,,,,,302.0925352,302.1063251,302.5906256,,,,,,,,,,,,302.6233973,,,,,,,,,,,,,296.8903472,296.9133248,296.9133248,296.9133248,302.09223,3,5.1618223,None,,,,875289,2,27,2,2025-10-08_15h27.28.645,מחקר פסיכולוגי,2024.1.4,None,2025-10-08 15h28.31.832561 +0300,
,,,,new | afrikan | flipped,images2/image4.png,"האדם בתמונה הוא:
1. זמר 
2. שחקן
3. ספורטאי
4. לא מכיר/ה
",1,,,,,,,,,0,13,13,3,302.6233973,,,,,,307.8754947,307.8894489,308.3734303,,,,,,,,,,,,308.4056265,,,,,,,,,,,,,302.5910752,302.6233973,302.6233973,302.6233973,307.8752074,1,5.2506583,None,,,,875289,2,27,2,2025-10-08_15h27.28.645,מחקר פסיכולוגי,2024.1.4,None,2025-10-08 15h28.31.832561 +0300,
,,,,old | afrikan | flipped,images2/image39.png,"האדם בתמונה הוא:
1. זמר 
2. שחקן
3. עתונאי
4. לא מכיר/ה
",2,,,,,,,,,0,14,14,26,308.4056265,,,,,,312.0083851,312.0225255,312.5066842,,,,,,,,,,,,312.5376384,,,,,,,,,,,,,308.3736861,308.4056265,308.4056265,308.4056265,312.0080958,2,3.5998182,None,,,,875289,2,27,2,2025-10-08_15h27.28.645,מחקר פסיכולוגי,2024.1.4,None,2025-10-08 15h28.31.832561 +0300,
,,,,old | caucasian | normal,images2/image44.png,"האדם בתמונה הוא:
1. זמר 
2. שחקן
3. ספורטאי
4. לא מכיר/ה
",2,,,,,,,,,0,15,15,31,312.5376384,,,,,,316.2430794,316.2559256,316.7400158,,,,,,,,,,,,316.7751838,,,,,,,,,,,,,312.5069443,312.5376384,312.5376384,312.5376384,316.242684,2,3.7010995,None,,,,875289,2,27,2,2025-10-08_15h27.28.645,מחקר פסיכולוגי,2024.1.4,None,2025-10-08 15h28.31.832561 +0300,
,,,,new | afrikan | normal,images2/image5.png,"האדם בתמונה הוא:
1. זמר 
2. שחקן
3. ספורטאי
4. לא מכיר/ה
",2,,,,,,,,,0,16,16,4,316.7751838,,,,,,319.9256143,319.9392156,320.4234062,,,,,,,,,,,,320.4857424,,,,,,,,,,,,,316.7402736,316.7751838,316.7751838,316.7751838,319.9252654,2,3.1341285,None,,,,875289,2,27,2,2025-10-08_15h27.28.645,מחקר פסיכולוגי,2024.1.4,None,2025-10-08 15h28.31.832561 +0300,
,,,,old | caucasian | flipped,images2/image62.png,"האדם בתמונה הוא:
1. זמר 
2. שחקן
3. פוליטיקאי
4. לא מכיר/ה
",4,,,,,,,,,0,17,17,19,320.4857424,,,,,,325.528177,325.5318847,326.0234682,,,,,,,,,,,,326.0920616,,,,,,,,,,,,,320.4237539,320.4857424,320.4857424,320.4857424,325.5278116,2,5.0195664,None,,,,875289,2,27,2,2025-10-08_15h27.28.645,מחקר פסיכולוגי,2024.1.4,None,2025-10-08 15h28.31.832561 +0300,
,,,,new | caucasian | normal,images2/image15.png,"האדם בתמונה הוא:
1. זמר 
2. שחקן
3. ספורטאי
4. לא מכיר/ה
",2,,,,,,,,,0,18,18,14,326.0920616,,,,,,331.8095492,331.8130861,332.3066947,,,,,,,,,,,,332.3242883,,,,,,,,,,,,,326.0239106,326.0920616,326.0920616,326.0920616,331.8077036,2,5.6844341,None,,,,875289,2,27,2,2025-10-08_15h27.28.645,מחקר פסיכולוגי,2024.1.4,None,2025-10-08 15h28.31.832561 +0300,
,,,,old | afrikan | normal,images2/image40.png,"האדם בתמונה הוא:
1. זמר 
2. שחקן
3. עתונאי
4. לא מכיר/ה
",1,,,,,,,,,0,19,19,27,332.3242883,,,,,,333.8927349,333.9055642,334.3918258,,,,,,,,,,,,334.4268415,,,,,,,,,,,,,332.3069526,332.3242883,332.3242883,332.3242883,333.8922759,1,1.5644176,None,,,,875289,2,27,2,2025-10-08_15h27.28.645,מחקר פסיכולוגי,2024.1.4,None,2025-10-08 15h28.31.832561 +0300,
,,,,old | caucasian | flipped,images2/image46.png,"האדם בתמונה הוא:
1. זמר 
2. שחקן
3. ספורטאי
4. לא מכיר/ה
",1,,,,,,,,,0,20,20,33,334.4268415,,,,,,337.7251769,337.739028,338.2228466,,,,,,,,,,,,338.2465407,,,,,,,,,,,,,334.3920866,334.4268415,334.4268415,334.4268415,337.7248257,1,3.2816269,None,,,,875289,2,27,2,2025-10-08_15h27.28.645,מחקר פסיכולוגי,2024.1.4,None,2025-10-08 15h28.31.832561 +0300,
,,,,new | afrikan | flipped,images2/image3.png,"האדם בתמונה הוא:
1. זמר 
2. שחקן
3. ספורטאי
4. לא מכיר/ה
",3,,,,,,,,,0,21,21,2,338.2465407,,,,,,342.5916334,342.6058172,343.0898669,,,,,,,,,,,,343.122239,,,,,,,,,,,,,338.223281,338.2465407,338.2465407,338.2465407,342.591347,3,4.3330375,None,,,,875289,2,27,2,2025-10-08_15h27.28.645,מחקר פסיכולוגי,2024.1.4,None,2025-10-08 15h28.31.832561 +0300,
,,,,old | afrikan | flipped,images2/image33.png,"האדם בתמונה הוא:
1. זמר 
2. שחקן
3.פוליטיקאי
4. לא מכיר/ה
",2,,,,,,,,,0,22,22,20,343.122239,,,,,,345.3082189,345.322122,345.8062577,,,,,,,,,,,,345.8451719,,,,,,,,,,,,,343.0902186,343.122239,343.122239,343.122239,345.3079222,2,2.1825287,None,,,,875289,2,27,2,2025-10-08_15h27.28.645,מחקר פסיכולוגי,2024.1.4,None,2025-10-08 15h28.31.832561 +0300,
,,,,new | afrikan | flipped,images2/image18.png,"האדם בתמונה הוא:
1. זמר 
2. שחקן
3. ספורטאי
4. לא מכיר/ה
",4,,,,,,,,,0,23,23,16,345.8451719,,,,,,347.7749594,347.788645,348.273087,,,,,,,,,,,,348.3067,,,,,,,,,,,,,345.8066068,345.8451719,345.8451719,345.8451719,347.7746587,4,1.9165603,None,,,,875289,2,27,2,2025-10-08_15h27.28.645,מחקר פסיכולוגי,2024.1.4,None,2025-10-08 15h28.31.832561 +0300,
,,,,new | caucasian | flipped,images2/image13.png,"האדם בתמונה הוא:
1. זמר 
2. שחקן
3. ספורטאי
4. לא מכיר/ה
",2,,,,,,,,,0,24,24,12,348.3067,,,,,,351.5585298,351.5720242,352.0577389,,,,,,,,,,,,352.0896789,,,,,,,,,,,,,348.2734653,348.3067,348.3067,348.3067,351.5582377,2,3.2463062,None,,,,875289,2,27,2,2025-10-08_15h27.28.645,מחקר פסיכולוגי,2024.1.4,None,2025-10-08 15h28.31.832561 +0300,
,,,,old | afrikan | normal,images2/image34.png,"האדם בתמונה הוא:
1. זמר 
2. שחקן
3. פוליטיקאי
4. לא מכיר/ה
",2,,,,,,,,,0,25,25,21,352.0896789,,,,,,357.140931,357.1551808,357.6390843,,,,,,,,,,,,357.672041,,,,,,,,,,,,,352.0579961,352.0896789,352.0896789,352.0896789,357.1406398,2,5.0372325,None,,,,875289,2,27,2,2025-10-08_15h27.28.645,מחקר פסיכולוגי,2024.1.4,None,2025-10-08 15h28.31.832561 +0300,
,,,,new | caucasian | flipped,images2/image16.png,"האדם בתמונה הוא:
1. זמר 
2. שחקן
3. ספורטאי
4. לא מכיר/ה
",2,,,,,,,,,0,26,26,15,357.672041,,,,,,360.408234,360.4218216,360.9059471,,,,,,,,,,,,360.9290082,,,,,,,,,,,,,357.6393421,357.672041,357.672041,357.672041,360.4079443,2,2.7298877,None,,,,875289,2,27,2,2025-10-08_15h27.28.645,מחקר פסיכולוגי,2024.1.4,None,2025-10-08 15h28.31.832561 +0300,
,,,,old | afrikan | normal,images2/image35.png,"האדם בתמונה הוא:
1. זמר 
2. שחקן
3. פוליטיקאי
4. לא מכיר/ה
",3,,,,,,,,,0,27,27,22,360.9290082,,,,,,363.4084521,363.4219628,363.90606,,,,,,,,,,,,363.9408986,,,,,,,,,,,,,360.9062155,360.9290082,360.9290082,360.9290082,363.4081268,3,2.4762192,None,,,,875289,2,27,2,2025-10-08_15h27.28.645,מחקר פסיכולוגי,2024.1.4,None,2025-10-08 15h28.31.832561 +0300,
,,,,old | afrikan | flipped,images2/image36.png,"האדם בתמונה הוא:
1. זמר 
2. שחקן
3.פוליטיקאי
4. לא מכיר/ה
",1,,,,,,,,,0,28,28,23,363.9408986,,,,,,365.992804,366.005187,366.4903287,,,,,,,,,,,,366.5127121,,,,,,,,,,,,,363.906485,363.9408986,363.9408986,363.9408986,365.9922616,1,2.0418537,None,,,,875289,2,27,2,2025-10-08_15h27.28.645,מחקר פסיכולוגי,2024.1.4,None,2025-10-08 15h28.31.832561 +0300,
,,,,new | caucasian | flipped,images2/image14.png,"האדם בתמונה הוא:
1. זמר 
2. שחקן
3. ספורטאי
4. לא מכיר/ה
",2,,,,,,,,,0,29,29,13,366.5127121,,,,,,370.0242985,370.0383349,370.5231245,,,,,,,,,,,,370.5578029,,,,,,,,,,,,,366.4908088,366.5127121,366.5127121,366.5127121,370.0239996,2,3.5067848,None,,,,875289,2,27,2,2025-10-08_15h27.28.645,מחקר פסיכולוגי,2024.1.4,None,2025-10-08 15h28.31.832561 +0300,
,,,,old | caucasian | flipped,images2/image45.png,"האדם בתמונה הוא:
1. זמר 
2. שחקן
3. ספורטאי
4. לא מכיר/ה
",2,,,,,,,,,0,30,30,32,370.5578029,,,,,,374.39105,374.4050386,374.8890412,,,,,,,,,,,,374.9205557,,,,,,,,,,,,,370.5235406,370.5578029,370.5578029,370.5578029,374.3907629,2,3.8166171,None,,,,875289,2,27,2,2025-10-08_15h27.28.645,מחקר פסיכולוגי,2024.1.4,None,2025-10-08 15h28.31.832561 +0300,
,,,,new | caucasian | normal,images2/image11.png,"האדם בתמונה הוא:
1. זמר 
2. שחקן
3. ספורטאי
4. לא מכיר/ה
",3,,,,,,,,,0,31,31,10,374.9205557,,,,,,376.3577559,376.3716034,376.856616,,,,,,,,,,,,376.8950957,,,,,,,,,,,,,374.8893111,374.9205557,374.9205557,374.9205557,376.3573978,3,1.4291995,None,,,,875289,2,27,2,2025-10-08_15h27.28.645,מחקר פסיכולוגי,2024.1.4,None,2025-10-08 15h28.31.832561 +0300,
,,,,new | afrikan | flipped,images2/image2.png,"האדם בתמונה הוא:
1. זמר 
2. שחקן
3. ספורטאי
4. לא מכיר/ה
",1,,,,,,,,,0,32,32,1,376.8950957,,,,,,378.5414525,378.5550069,379.0396818,,,,,,,,,,,,379.059,,,,,,,,,,,,,376.8570524,376.8950957,376.8950957,376.8950957,378.5411341,1,1.6412494,None,,,,875289,2,27,2,2025-10-08_15h27.28.645,מחקר פסיכולוגי,2024.1.4,None,2025-10-08 15h28.31.832561 +0300,
,,,,new | caucasian | normal,images2/image10.png,"האדם בתמונה הוא:
1. זמר 
2. שחקן
3. ספורטאי
4. לא מכיר/ה
",2,,,,,,,,,0,33,33,9,379.059,,,,,,380.8237339,380.837947,381.3223944,,,,,,,,,,,,381.3417103,,,,,,,,,,,,,379.0401716,379.059,379.059,379.059,380.8234447,2,1.7523662,None,,,,875289,2,27,2,2025-10-08_15h27.28.645,מחקר פסיכולוגי,2024.1.4,None,2025-10-08 15h28.31.832561 +0300,
,,,,new | caucasian | flipped,images2/image12.png,"האדם בתמונה הוא:
1. זמר 
2. שחקן
3. ספורטאי
4. לא מכיר/ה
",2,,,,,,,,,0,34,34,11,381.3417103,,,,,,383.0409293,383.055398,383.5389066,,,,,,,,,,,,383.5731768,,,,,,,,,,,,,381.3228858,381.3417103,381.3417103,381.3417103,383.0406424,2,1.684528,None,,,,875289,2,27,2,2025-10-08_15h27.28.645,מחקר פסיכולוגי,2024.1.4,None,2025-10-08 15h28.31.832561 +0300,
,,,,old | afrikan | normal,images2/image37.png,"האדם בתמונה הוא:
1. זמר 
2. שחקן
3. עתונאי
4. לא מכיר/ה
",1,,,,,,,,,0,35,35,24,383.5731768,,,,,,385.1578526,385.1715692,385.6560524,,,,,,,,,,,,385.6793039,,,,,,,,,,,,,383.539174,383.5731768,383.5731768,383.5731768,385.1575491,1,1.5797035,None,,,,875289,2,27,2,2025-10-08_15h27.28.645,מחקר פסיכולוגי,2024.1.4,None,2025-10-08 15h28.31.832561 +0300,
,,,,,,,,,,,,,,,,,,,,,,,,,,,,,,,,,,,,,,,,,,,,,,,,,,,,,,,,,,,,,385.6561507,385.6793039,388.671666,875289,2,27,2,2025-10-08_15h27.28.645,מחקר פסיכולוגי,2024.1.4,None,2025-10-08 15h28.31.832561 +0300,
,,,,,,,,,,old | caucasian | flipped,old | caucasian | normal,new | caucasian | flipped,new | caucasian | normal,old | afrikan | flipped,old | afrikan | normal,new | afrikan | flipped,new | afrikan | normal,,sum,,,,,,,,,,,,,,,,,,,,,,,,,,,,,,,,,,,,,,,,,,,,,,,,,,,,,,
,,,,,,,,,,4,4,4,4,4,4,3,4,,31,,,,,,,,,,,,,,,,,,,,,,,,,,,,,,,,,,,,,,,,,,,,,,,,,,,,,,
,,,,,,,,,,,,,,,,,,,,,,,,,,,,,,,,,,,,,,,,,,,,,,,,,,,,,,,,,,,,,,,,,,,,,,,,,
,,,,,,,,,sum correct,31,,,,,,,,,,,,,,,,,,,,,,,,,,,,,,,,,,,,,,,,,,,,,,,,,,,,,,,,,,,,,,,
,,,,,,,,,sum not 4,31,,,,,,,,,,,,,,,,,,,,,,,,,,,,,,,,,,,,,,,,,,,,,,,,,,,,,,,,,,,,,,,
